name,department_name,program_name,type_of_degree_course,standard_period_of_study,total_credits,teaching_profile,interdisciplinarity,credits_for_laboratory_practicals,excursions,number_of_students,first_year_students_per_year,graduates_per_year,graduations_in_appropriate_time,gender_balance,url,proportion_of_international_students,share_of_foreign_language_courses,applicants/places_ratio,subject_orientation,practical_elements_in_the_degree_course,mandatory_study_period_abroad,combined_study_programme_with_foreign_hei,international_orientation:_studies_abroad,international_orientation:_students_mobility,international_orientation:_share_in_foreign_language,international_orientation_of_the_degree_course,contact_with_work_environment:_internships,contact_with_work_environment:_case_studies,contact_with_work_environment:_external_staff_members,contact_with_work_environment:_theses_in_cooperation_with_work_environment,contact_with_work_environment,mode_of_admission,contact_with_work_environment:_excursions,study_duration_median,share_of_ects_in_international_law,key_skills,admission_requirements,international_orientation:_credits_for_courses_in_intercultural_competence,preliminary_internship,coursework_composition,credits_aquired_at_the_practice_partner,extent_of_interlinking_of_this_programme,extent_of_interlinking:_study_contents,extent_of_interlinking:_support,extent_of_interlinking:_institutionel_level,cooperative_education:_contact_persons,cooperative_education:_outcome_control,cooperative_education:_content_linking,cooperative_education:_courses,cooperative_education:_student_exchange_in_theory/practical_phase,cooperative_education:_selection_process,cooperative_education:_salary,number_of_credits_for_international_law,dual_course_of_study:_success_rate,dual_course_of_study:_contract_modalities,scope_of_compulsory_laboratory_courses
Albert-Ludwigs-Universität Freiburg,Fakultät für Biologie at the Uni Freiburg,Biology (B.Sc.),,6semesters,180,,no interdisciplinary study course,34 ECTS from compulsory subjects; 164 ECTS from elective subjects,Scope of excursions: 5 compulsory ECTS and 16 compulsory elective ECTS,544,177,150,40.2%,40:60[%m:%f],https://ranking.zeit.de/che/en/studiengang/20655,,,,,,,,,,,,,,,,,,,,,,,,,,,,,,,,,,,,,,,,,
Albert-Ludwigs-Universität Freiburg,Fakultät für Biologie at the Uni Freiburg,"Biology (B, multi-disciplinary, dual subject)",,6semesters,180,,no interdisciplinary study course,34 ECTS from compulsory subjects; 61 ECTS from elective subjects,Scope of excursions: 5 compulsory ECTS and 6 compulsory elective ECTS,191,65,not calculated due to no graduates in academic year 2015,not calculated due to no graduates in academic year 2015,37:63[%m:%f],https://ranking.zeit.de/che/en/studiengang/37877,,,,,,,,,,,,,,,,,,,,,,,,,,,,,,,,,,,,,,,,,
Albert-Ludwigs-Universität Freiburg,Fakultät für Biologie at the Uni Freiburg,Biology (M.Sc.),,4semesters,120,,no interdisciplinary study course,no data,Scope of excursions:  35 compulsory elective ECTS,333,115,138,,42:58[%m:%f],https://ranking.zeit.de/che/en/studiengang/27525,8.0%,75.0%,,,,,,,,,,,,,,,,,,,,,,,,,,,,,,,,,,,,,,,
Albert-Ludwigs-Universität Freiburg,Fakultät für Biologie at the Uni Freiburg,Neuroscience (M.Sc.),,4semesters,120,,no interdisciplinary study course,no data,,39,23,no graduates in the period of time surveyed,,41:59[%m:%f],https://ranking.zeit.de/che/en/studiengang/40331,36.0%,100.0%,,,,,,,,,,,,,,,,,,,,,,,,,,,,,,,,,,,,,,,
Albert-Ludwigs-Universität Freiburg,Fakultät für Chemie und Pharmazie at the Uni Freiburg,Chemistry (B),,6semesters,no data,,,,,380,127,52,,62:38[%m:%f],https://ranking.zeit.de/che/en/studiengang/21461,,,no admission restriction,,,,,,,,,,,,,,,,,,,,,,,,,,,,,,,,,,,,,,
Albert-Ludwigs-Universität Freiburg,Fakultät für Chemie und Pharmazie at the Uni Freiburg,"Chemistry (B, polyvalent with Teacher training option)",,6semesters,no data,,,,,118,64,no data available,,58:42[%m:%f],https://ranking.zeit.de/che/en/studiengang/40054,,,no admission restriction,,,,,,,,,,,,,,,,,,,,,,,,,,,,,,,,,,,,,,
Albert-Ludwigs-Universität Freiburg,Fakultät für Chemie und Pharmazie at the Uni Freiburg,German-French ''Regio-Chimica'' programme (B),,6semesters,no data,,,,,68,19,no data available,,29:71[%m:%f],https://ranking.zeit.de/che/en/studiengang/21463,,,4:30,,,,,,,,,,,,,,,,,,,,,,,,,,,,,,,,,,,,,,
Albert-Ludwigs-Universität Freiburg,Fakultät für Chemie und Pharmazie at the Uni Freiburg,Biochemistry and Biophysics  (M),,4semesters,no data,,,,,93,41,,,54:46[%m:%f],https://ranking.zeit.de/che/en/studiengang/36344,,,no admission restriction,,,,,,,,,,,,,,,,,,,,,,,,,,,,,,,,,,,,,,
Albert-Ludwigs-Universität Freiburg,Fakultät für Chemie und Pharmazie at the Uni Freiburg,Chemistry (M),,6semesters,no data,,,,,207,49,,,70:30[%m:%f],https://ranking.zeit.de/che/en/studiengang/21462,,,no admission restriction,,,,,,,,,,,,,,,,,,,,,,,,,,,,,,,,,,,,,,
Albert-Ludwigs-Universität Freiburg,Fakultät für Chemie und Pharmazie at the Uni Freiburg,Sustainable Materials - Polymer Science (M),,4semesters,no data,,,,,89,44,,,65:35[%m:%f],https://ranking.zeit.de/che/en/studiengang/36343,,,no admission restriction,,,,,,,,,,,,,,,,,,,,,,,,,,,,,,,,,,,,,,
Albert-Ludwigs-Universität Freiburg,Fakultät für Chemie und Pharmazie at the Uni Freiburg,Sustainable Materials - Crystalline Materials (M),,4semesters,no data,,,,,27,,,,74:26[%m:%f],https://ranking.zeit.de/che/en/studiengang/37729,,,no admission restriction,,,,,,,,,,,,,,,,,,,,,,,,,,,,,,,,,,,,,,
Albert-Ludwigs-Universität Freiburg,Fakultät für Chemie und Pharmazie at the Uni Freiburg,Sustainable Materials - Functional Materials (M),,4semesters,no data,,,,,20,,,,65:35[%m:%f],https://ranking.zeit.de/che/en/studiengang/37728,,,no admission restriction,,,,,,,,,,,,,,,,,,,,,,,,,,,,,,,,,,,,,,
Albert-Ludwigs-Universität Freiburg,Technische Fakultät at the Uni Freiburg,Computer Science (B),,6semesters,180,,no interdisciplinary study course,,,520,191,43,65.1%,85:15[%m:%f],https://ranking.zeit.de/che/en/studiengang/21624,12.0%,10.0%,no admission restriction,"Applied Computer Science, Bioinformatics, Software-Engineering, Medical Informatics, IT-Security",22 ECTS for practical courses,"no, but credits can be counted",no,1/4points,2/2points,1/3points,4/9points,0/4points,2/3points,1/2points,0/2points,3/11points,,,,,,,,,,,,,,,,,,,,,,,,,
Albert-Ludwigs-Universität Freiburg,Technische Fakultät at the Uni Freiburg,Embedded Systems Engineering (B),,6semesters,180,,interdisciplinary study course,,,131,42,22,62.2%,86:14[%m:%f],https://ranking.zeit.de/che/en/studiengang/27751,11.0%,8.0%,no admission restriction,"Applied Computer Science, Engineering Information Technology / Computer Engineering, Computer Engineering, IT-Security",30 ECTS for practical courses,"no, but credits can be counted",no,1/4points,2/2points,1/3points,4/9points,0/4points,3/3points,1/2points,0/2points,4/11points,,,,,,,,,,,,,,,,,,,,,,,,,
Albert-Ludwigs-Universität Freiburg,Technische Fakultät at the Uni Freiburg,Computer Science in multi-disciplinary dual-subject Bachelor's degree with TQ option (B),,6semesters,180,,no interdisciplinary study course,,,54,34,no graduates in the period of time surveyed,no graduates in the period of time surveyed,74:26[%m:%f],https://ranking.zeit.de/che/en/studiengang/40088,6.0%,8.0%,no admission restriction,Applied Computer Science,4 ECTS for practical courses,"no, but credits can be counted",no,1/4points,1/2points,1/3points,3/9points,,,,,Not ranked,,,,,,,,,,,,,,,,,,,,,,,,,
Albert-Ludwigs-Universität Freiburg,Technische Fakultät at the Uni Freiburg,Computer Science (M),,4semesters,120,,no interdisciplinary study course,,,317,83,52,23.8%,80:20[%m:%f],https://ranking.zeit.de/che/en/studiengang/21898,49.0%,100.0%,no admission restriction,"Applied Computer Science, Bioinformatics, Software-Engineering, Medical Informatics, IT-Security, Computer Visualistics",16 ECTS for optional practical projects/internships; 22 ECTS for practical courses,"no, but credits can be counted",no,1/4points,2/2points,3/3points,6/9points,0/4points,2/3points,1/2points,0/2points,4/11points,,,,,,,,,,,,,,,,,,,,,,,,,
Albert-Ludwigs-Universität Freiburg,Technische Fakultät at the Uni Freiburg,Embedded Systems Engineering (M),,4semesters,120,,interdisciplinary study course,,,187,55,30,40.0%,85:15[%m:%f],https://ranking.zeit.de/che/en/studiengang/34268,52.0%,95.0%,no admission restriction,"Applied Computer Science, Engineering Information Technology / Computer Engineering, Computer Engineering, Medical Informatics, IT-Security",30 ECTS for practical courses,"no, but credits can be counted",no,1/4points,2/2points,3/3points,6/9points,0/4points,3/3points,1/2points,0/2points,4/11points,,,,,,,,,,,,,,,,,,,,,,,,,
Albert-Ludwigs-Universität Freiburg,Wirtschafts- und Verhaltenswissenschaftliche Fakultät at the Uni Freiburg,Education Science and Education Management (B.A.),"presence learning programme, full-time",6semesters,180,"110 credits in mandatory modules, 10 credits in compulsory elective modules",,,,173,52,38,98.7%,,https://ranking.zeit.de/che/en/studiengang/29319,85.0%,,,Adult Education/Further Education,10 weeks practice/internship outside the university obligatory; 28 ECTS max. permissible for practice-oriented courses,,,,,,,2/4points,2/3points,2/2points,1/2points,7/11points,"limited number of places, 30 places",,,,,,,,,,,,,,,,,,,,,,,,
Albert-Ludwigs-Universität Freiburg,Wirtschafts- und Verhaltenswissenschaftliche Fakultät at the Uni Freiburg,Education Science: Teching and Learning (M.A.),"presence learning programme, full-time",4semesters,120,no data,,,,55,22,17,67.6%,,https://ranking.zeit.de/che/en/studiengang/29320,71.0%,,,Adult Education/Further Education,14 weeks practice/internship outside the university obligatory; 29 ECTS max. permissible for practice-oriented courses,,,,,,,2/4points,2/3points,2/2points,0/2points,6/11points,number of places not limited,,,,,,,,,,,,,,,,,,,,,,,,
Albert-Ludwigs-Universität Freiburg,Fakultät für Umwelt und Natürliche Ressourcen at the Uni Freiburg,Geography (B.Sc.),Presence learning programme; full-time programme,6semesters,180,,no interdisciplinary study course,,Scope of excursions: 7 compulsory ECTS and 5 compulsory elective ECTS,122,35,28,64.9%,46:54[%m:%f],https://ranking.zeit.de/che/en/studiengang/15354,6.0%,0.0%,183:28,,8 weeks mandatory practical period/internship outside the university; 45 ECTS for practical courses,"no, but credits can be counted",no,1/4points,1/2points,0/3points,2/9points,2/4points,3/3points,1/2points,0/2points,7/12points,,1/1points,,,,,,,,,,,,,,,,,,,,,,,
Albert-Ludwigs-Universität Freiburg,Fakultät für Umwelt und Natürliche Ressourcen at the Uni Freiburg,Geography in multi-disciplinary dual-subject Bachelor’s with TQ option (B.Sc./B.A.),,6semesters,180,,no interdisciplinary study course,,Scope of excursions: 5 compulsory ECTS and 5 compulsory elective ECTS,86,37,no graduates in the period of time surveyed,no graduates in the period of time surveyed,47:53[%m:%f],https://ranking.zeit.de/che/en/studiengang/40423,1.0%,0.0%,236:35,,3 weeks mandatory practical period/internship outside the university; 15 ECTS for practical courses,"no, but credits can be counted",no,,,,Not ranked,0/4points,2/3points,1/2points,0/2points,4/12points,,1/1points,,,,,,,,,,,,,,,,,,,,,,,
Albert-Ludwigs-Universität Freiburg,Fakultät für Umwelt und Natürliche Ressourcen at the Uni Freiburg,Geography of Global Change (M.Sc.),,4semesters,120,,no interdisciplinary study course,,Scope of excursions: 10 compulsory ECTS,82,30,27,24.1%,37:63[%m:%f],https://ranking.zeit.de/che/en/studiengang/34080,2.0%,5.0%,116:35,,7 weeks mandatory practical period/internship outside the university; 30 ECTS for practical courses,"no, but credits can be counted",no,1/4points,0/2points,1/3points,2/9points,0/4points,3/3points,1/2points,0/2points,5/12points,,1/1points,,,,,,,,,,,,,,,,,,,,,,,
Albert-Ludwigs-Universität Freiburg,Fakultät für Umwelt und Natürliche Ressourcen at the Uni Freiburg,Geosciences (B),Presence learning programme; full-time programme,6semesters,180,,no interdisciplinary study course,,,170,74,40,67.9%,59:41[%m:%f],https://ranking.zeit.de/che/en/studiengang/14636,4.0%,0.0%,no admission restriction,,10 ECTS for practical courses,"no, but credits can be counted",no,1/4points,0/2points,0/3points,1/9points,0/4points,2/3points,2/2points,1/2points,7/12points,,1/1points,,,,,,,,,,,,,,,,,,,,,,,
Albert-Ludwigs-Universität Freiburg,Fakultät für Umwelt und Natürliche Ressourcen at the Uni Freiburg,Geology (M),,4semesters,120,,no interdisciplinary study course,,Scope of excursions: 5 compulsory ECTS,52,19,21,31.0%,75:25[%m:%f],https://ranking.zeit.de/che/en/studiengang/34252,65.0%,100.0%,89:20,,,"no, but credits can be counted",no,1/4points,2/2points,3/3points,6/9points,0/4points,0/3points,2/2points,1/2points,4/12points,,1/1points,,,,,,,,,,,,,,,,,,,,,,,
Albert-Ludwigs-Universität Freiburg,Fakultät für Umwelt und Natürliche Ressourcen at the Uni Freiburg,Sustainable Materials (profile line Crystalline Materials) (M),,4semesters,120,,no interdisciplinary study course,,Scope of excursions: 2 compulsory ECTS,1,,20,41.5%,,https://ranking.zeit.de/che/en/studiengang/40421,100.0%,100.0%,no admission restriction,,6 ECTS for optional practical projects/internships;,"no, but credits can be counted",no,1/4points,2/2points,3/3points,6/9points,0/4points,0/3points,2/2points,1/2points,3/12points,,0/1points,,,,,,,,,,,,,,,,,,,,,,,
Albert-Ludwigs-Universität Freiburg,Philologische Fakultät at the Uni Freiburg,"German (B.A., multi-disciplinary)","presence learning programme, full-time",6semesters,180,,,,,349,118,no data available,no data available,,https://ranking.zeit.de/che/en/studiengang/37879,69.0%,,,,,"no, but credits for study abroad eligible",no,,,,Not ranked,,,,,,"limited number of places, 112 places",,,,,,,,,,,,,,,,,,,,,,,,
Albert-Ludwigs-Universität Freiburg,Philologische Fakultät at the Uni Freiburg,"German Linguistics and Literary Studies (B.A., dual-subject)","presence learning programme, full-time",6semesters,180,,,,,267,82,65,83.8%,,https://ranking.zeit.de/che/en/studiengang/36110,73.0%,,,,,"no, but credits for study abroad eligible",no,1/4points,2/2points,0/3points,3/9points,,,,,,number of places not limited,,,,,,,,,,,,,,,,,,,,,,,,
Albert-Ludwigs-Universität Freiburg,Philologische Fakultät at the Uni Freiburg,German Studies from a German-French Perspective (B.A./Licence),"presence learning programme, full-time",6semesters,180,,,,,,,no data available,no data available,,https://ranking.zeit.de/che/en/studiengang/41337,,,,,,yes,"yes, ""joint degree"" mandatory",4/4points,0/2points,3/3points,7/9points,,,,,,number of places not limited,,,,,,,,,,,,,,,,,,,,,,,,
Albert-Ludwigs-Universität Freiburg,Philologische Fakultät at the Uni Freiburg,"Modern German Literature, Culture, Media (M.A.)","presence learning programme, full-time",4semesters,120,,,,,32,10,13,32.0%,,https://ranking.zeit.de/che/en/studiengang/16915,78.0%,,,,,"no, but credits for study abroad eligible",no,1/4points,2/2points,0/3points,3/9points,,,,,,number of places not limited,,,,,,,,,,,,,,,,,,,,,,,,
Albert-Ludwigs-Universität Freiburg,Philologische Fakultät at the Uni Freiburg,European Literatures and Cultures - inter-disciplinary (M.A.),"presence learning programme, full-time",4semesters,120,,,,,27,10,<10,"not calculated, <10 graduates/year",,https://ranking.zeit.de/che/en/studiengang/36112,81.0%,,,,,"no, but credits for study abroad eligible",no,1/4points,2/2points,3/3points,6/9points,,,,,,number of places not limited,,,,,,,,,,,,,,,,,,,,,,,,
Albert-Ludwigs-Universität Freiburg,Philologische Fakultät at the Uni Freiburg,German Linguistics (M.A.),"presence learning programme, full-time",4semesters,120,,,,,16,2,<10,"not calculated, <10 graduates/year",,https://ranking.zeit.de/che/en/studiengang/28982,69.0%,,,,,"no, but credits for study abroad eligible",no,1/4points,2/2points,0/3points,3/9points,,,,,,number of places not limited,,,,,,,,,,,,,,,,,,,,,,,,
Albert-Ludwigs-Universität Freiburg,Philologische Fakultät at the Uni Freiburg,German as a Foreign Language/Intercultural Linguistics and Literary Studies (MA),"presence learning programme, full-time",4semesters,120,,,,,15,8,<10,"not calculated, <10 graduates/year",,https://ranking.zeit.de/che/en/studiengang/41338,80.0%,,,,,"no, but credits for study abroad eligible",no,1/4points,2/2points,0/3points,3/9points,,,,,,number of places not limited,,,,,,,,,,,,,,,,,,,,,,,,
Albert-Ludwigs-Universität Freiburg,Philologische Fakultät at the Uni Freiburg,German Literature (M.A.),"presence learning programme, full-time",4semesters,120,,,,,13,4,<10,"not calculated, <10 graduates/year",,https://ranking.zeit.de/che/en/studiengang/36111,85.0%,,,,,"no, but credits for study abroad eligible",no,1/4points,2/2points,0/3points,3/9points,,,,,,number of places not limited,,,,,,,,,,,,,,,,,,,,,,,,
Albert-Ludwigs-Universität Freiburg,Philologische Fakultät at the Uni Freiburg,Linguistics (M.A.),"presence learning programme, full-time",4semesters,120,,,,,9,3,<10,"not calculated, <10 graduates/year",,https://ranking.zeit.de/che/en/studiengang/41339,56.0%,,,,,"no, but credits for study abroad eligible",no,1/4points,2/2points,3/3points,6/9points,,,,,,number of places not limited,,,,,,,,,,,,,,,,,,,,,,,,
Albert-Ludwigs-Universität Freiburg,Technische Fakultät at the Uni Freiburg,Microsystems Engineering (B.Sc.),"presence learning programme, full-time, interdisciplinary",6semesters,180,"154 credits in mandatory modules, 18 credits in compulsory elective modules","yes, interdisciplinary programme",,,194,55,30,81.7%,77:23[%m:%f],https://ranking.zeit.de/che/en/studiengang/35561,13.0%,0.0%,,"Engineering, interdisciplinary",26 ECTS max. permissible for practice-oriented courses,"no, but credits for study abroad eligible",no,0/4points,2/2points,0/3points,2/9points,0/4points,2/3points,0/2points,0/2points,2/11points,number of places not limited,,7.1semesters,,,,,,,,,,,,,,,,,,,,,,
Albert-Ludwigs-Universität Freiburg,Technische Fakultät at the Uni Freiburg,Embedded Systems Engineering (B.Sc.),"presence learning programme, full-time, interdisciplinary",6semesters,180,"145 credits in mandatory modules, 27 credits in compulsory elective modules","yes, interdisciplinary programme",,,149,67,22,74.4%,91:9[%m:%f],https://ranking.zeit.de/che/en/studiengang/35560,11.0%,42.0%,,"Engineering, interdisciplinary",32 ECTS max. permissible for practice-oriented courses,"no, but credits for study abroad eligible",no,0/4points,2/2points,2/3points,4/9points,0/4points,3/3points,0/2points,0/2points,3/11points,number of places not limited,,7.8semesters,,,,,,,,,,,,,,,,,,,,,,
Albert-Ludwigs-Universität Freiburg,Technische Fakultät at the Uni Freiburg,Microsystems Engineering (M.Sc.),"presence learning programme, full-time",4semesters,120,no data,,,,95,22,38,26.3%,72:28[%m:%f],https://ranking.zeit.de/che/en/studiengang/35564,96.0%,100.0%,,"Engineering, interdisciplinary",19 ECTS max. permissible for practice-oriented courses,"no, but credits for study abroad eligible",no,0/4points,2/2points,3/3points,5/9points,0/4points,2/3points,0/2points,0/2points,2/11points,limited number of places,,6.5semesters,,,,,,,,,,,,,,,,,,,,,,
Albert-Ludwigs-Universität Freiburg,Technische Fakultät at the Uni Freiburg,Embedded Systems Engineering (M.Sc.),"presence learning programme, full-time",4semesters,120,no data,,,,197,48,29,36.2%,84:16[%m:%f],https://ranking.zeit.de/che/en/studiengang/35562,52.0%,100.0%,,"Engineering, interdisciplinary",16 ECTS max. permissible for practice-oriented courses,"no, but credits for study abroad eligible",no,0/4points,2/2points,3/3points,5/9points,0/4points,2/3points,0/2points,0/2points,2/11points,limited number of places,,6.5semesters,,,,,,,,,,,,,,,,,,,,,,
Albert-Ludwigs-Universität Freiburg,Technische Fakultät at the Uni Freiburg,Microsystems Engineering (M.Sc.),"presence learning programme, full-time",4semesters,120,no data,,,,79,16,36,26.8%,68:32[%m:%f],https://ranking.zeit.de/che/en/studiengang/35565,1.0%,57.0%,,"Engineering, interdisciplinary",16 ECTS max. permissible for practice-oriented courses,"no, but credits for study abroad eligible",no,0/4points,0/2points,3/3points,3/9points,0/4points,2/3points,0/2points,0/2points,2/11points,limited number of places,,5.9semesters,,,,,,,,,,,,,,,,,,,,,,
Albert-Ludwigs-Universität Freiburg,Technische Fakultät at the Uni Freiburg,Intelligent Embedded Microsystems (M.Sc.),"distance learning, extra-occupational",5semesters,150,no data,,,,32,6,<10,"not calculated, <10 graduates/year",100:0[%m:%f],https://ranking.zeit.de/che/en/studiengang/35563,19.0%,0.0%,,"Engineering, interdisciplinary",50 ECTS max. permissible for practice-oriented courses,not scheduled,no,0/4points,2/2points,0/3points,2/9points,0/4points,3/3points,0/2points,0/2points,3/11points,limited number of places,,< 10 graduates,,,,,,,,,,,,,,,,,,,,,,
Albert-Ludwigs-Universität Freiburg,Technische Fakultät at the Uni Freiburg,"Solar Energy Engineering (M.Sc., distance learning)","distance learning, extra-occupational",4semesters,60,no data,,,,27,14,no graduates until WS 2017/18,no graduates until WS 2017/18,74:26[%m:%f],https://ranking.zeit.de/che/en/studiengang/40953,96.0%,100.0%,,"Engineering, interdisciplinary",33 ECTS max. permissible for practice-oriented courses,not scheduled,no,,,,Not ranked,0/4points,3/3points,0/2points,0/2points,3/11points,limited number of places,,no graduates until WS 2017/18,,,,,,,,,,,,,,,,,,,,,,
Albert-Ludwigs-Universität Freiburg,Rechtswissenschaftliche Fakultät at the Uni Freiburg,Law (St),,9semesters,,,,,,"2,249",366,,,46:54[%m:%f],https://ranking.zeit.de/che/en/studiengang/923,,,,,,,,,,,,,,,,,"limited number of places, 360 places",,,,,,,,,,,,,,,,,,,,,,,,
Albert-Ludwigs-Universität Freiburg,Rechtswissenschaftliche Fakultät at the Uni Freiburg,Law (LL.M.),"Presence learning programme, full-time programme for law graduates abroad",4semesters,no data,,,,,<10,<10,,,,https://ranking.zeit.de/che/en/studiengang/13647,,,,,,,,,,,,,,,,,number of places not limited,,,,,,,,,,,,,,,,,,,,,,,,
Albert-Ludwigs-Universität Freiburg,Rechtswissenschaftliche Fakultät at the Uni Freiburg,Double Master German-French Law (LL.M.),,4semesters,120,,,,,14,<10,,,,https://ranking.zeit.de/che/en/studiengang/41980,,,,,,,,,,,,,,,,,"limited number of places, 20 places",,,,,,,,,,,,,,,,,,,,,,,,
Albert-Ludwigs-Universität Freiburg,Rechtswissenschaftliche Fakultät at the Uni Freiburg,EUCOR-Master (LL.M.),,3semesters,60,,,,,<10,<10,,,,https://ranking.zeit.de/che/en/studiengang/19034,,,,,,,,,,,,,,,,,number of places not limited,,,,,,,,,,,,,,,,,,,,,,,,
Albert-Ludwigs-Universität Freiburg,Fakultät für Mathematik und Physik at the Uni Freiburg,Mathematics (B.Sc.),,6semesters,180,,,,,224,69,64,65.1%,67:33[%m:%f],https://ranking.zeit.de/che/en/studiengang/21454,6.0%,,no admission restriction,Mathematics,8 ECTS for optional practical projects/internships; 13 ECTS for practical courses,"no, but credits can be counted",no,1/4points,1/2points,0/3points,2/9points,,,,,,,,,,,,,,,,,,,,,,,,,,,,,,
Albert-Ludwigs-Universität Freiburg,Fakultät für Mathematik und Physik at the Uni Freiburg,"Mathematics (B.Sc./B.A., two-subject, option for TQ)",,6semesters,180,,no interdisciplinary study course,,,255,118,no graduates in the period of time surveyed,no graduates in the period of time surveyed,53:47[%m:%f],https://ranking.zeit.de/che/en/studiengang/40090,2.0%,,no admission restriction,Mathematics,3 weeks mandatory practical period/internship outside the university; 7 ECTS for optional practical projects/internships; 3 ECTS for practical courses,"no, but credits can be counted",no,,,,Not ranked,,,,,,,,,,,,,,,,,,,,,,,,,,,,,,
Albert-Ludwigs-Universität Freiburg,Fakultät für Mathematik und Physik at the Uni Freiburg,Mathematics (M.Sc.),,4semesters,120,,no interdisciplinary study course,,,125,40,36,23.9%,75:25[%m:%f],https://ranking.zeit.de/che/en/studiengang/21455,11.0%,3.0%,no admission restriction,Mathematics,21 ECTS for practical courses,"no, but credits can be counted",no,1/4points,2/2points,0/3points,3/9points,,,,,,,,,,,,,,,,,,,,,,,,,,,,,,
Albert-Ludwigs-Universität Freiburg,Fakultät für Chemie und Pharmazie at the Uni Freiburg,Pharmacy (State Examination),Presence learning programme; full-time programme,,,,,,,474,94,82,,29:71[%m:%f],https://ranking.zeit.de/che/en/studiengang/7428,,,760:90,,,,,,,,,,,,,,,,,,,,,,,,,,,,,,,,,,,,,,
Albert-Ludwigs-Universität Freiburg,Fakultät für Chemie und Pharmazie at the Uni Freiburg,Pharmaceutical Science (B.Sc.),,,,,,,,104,30,only calculated for state examination degree courses,,40:60[%m:%f],https://ranking.zeit.de/che/en/studiengang/27617,,,272:30,,,,,,,,,,,,,,,,,,,,,,,,,,,,,,,,,,,,,,
Albert-Ludwigs-Universität Freiburg,Fakultät für Chemie und Pharmazie at the Uni Freiburg,Pharmaceutical Science  (M.Sc.),,4semesters,120,,,,,76,19,,,42:58[%m:%f],https://ranking.zeit.de/che/en/studiengang/27618,,,no admission restriction,,,,,,,,,,,,,,,,,,,,,,,,,,,,,,,,,,,,,,
Albert-Ludwigs-Universität Freiburg,Fakultät für Mathematik und Physik at the Uni Freiburg,Physics (B.Sc.),,6semesters,180,,no interdisciplinary study course,29 ECTS from compulsory subjects,,231,107,54,75.2%,82:18[%m:%f],https://ranking.zeit.de/che/en/studiengang/21041,4.0%,,no admission restriction,,,"no, but credits can be counted",no,1/4points,0/2points,0/3points,2/10points,,,,,,,,,1/1points,,,,,,,,,,,,,,,,,,,,,
Albert-Ludwigs-Universität Freiburg,Fakultät für Mathematik und Physik at the Uni Freiburg,"Physics (B, two-subject, optional TQ)",,6semesters,180,,no interdisciplinary study course,8 ECTS from compulsory subjects,,68,33,no graduates in the period of time surveyed,no graduates in the period of time surveyed,71:29[%m:%f],https://ranking.zeit.de/che/en/studiengang/40093,4.0%,,no admission restriction,,,"no, but credits can be counted",no,1/4points,0/2points,0/3points,2/10points,,,,,,,,,1/1points,,,,,,,,,,,,,,,,,,,,,
Albert-Ludwigs-Universität Freiburg,Fakultät für Mathematik und Physik at the Uni Freiburg,Physics (M.Sc.),,4semesters,120,,no interdisciplinary study course,no data,,120,32,32,63.5%,88:12[%m:%f],https://ranking.zeit.de/che/en/studiengang/21042,17.0%,,no admission restriction,,,"no, but credits can be counted",no,1/4points,2/2points,3/3points,7/10points,,,,,,,,,1/1points,,,,,,,,,,,,,,,,,,,,,
Albert-Ludwigs-Universität Freiburg,Fakultät für Mathematik und Physik at the Uni Freiburg,Applied Physics (M.Sc.),,4semesters,120,,no interdisciplinary study course,no data,,40,24,no graduates in the period of time surveyed,no graduates in the period of time surveyed,80:20[%m:%f],https://ranking.zeit.de/che/en/studiengang/40092,32.0%,,no admission restriction,,,"no, but credits can be counted",no,1/4points,2/2points,3/3points,7/10points,,,,,,,,,1/1points,,,,,,,,,,,,,,,,,,,,,
Albert-Ludwigs-Universität Freiburg,Philosophische Fakultät at the Uni Freiburg,Political Science (B.A.),Presence learning programme; full-time programme,,180,,no interdisciplinary study course,,,338,100,78,76.4%,55:45[%m:%f],https://ranking.zeit.de/che/en/studiengang/13981,5.0%,20.0%,486:70,,6 weeks mandatory practical period/internship outside the university; 4 ECTS for optional practical projects/internships; 20 ECTS for practical courses,"no, but credits can be counted",no,1/4points,1/2points,1/3points,3/9points,,,,,,,,,,,,,,,,,,,,,,,,,,,,,,
Albert-Ludwigs-Universität Freiburg,Philosophische Fakultät at the Uni Freiburg,Political Science (B.A. with optional TQ),,,180,,interdisciplinary study course,,,100,45,no graduates in the period of time surveyed,no graduates in the period of time surveyed,57:43[%m:%f],https://ranking.zeit.de/che/en/studiengang/34714,2.0%,20.0%,286:30,,3 weeks mandatory practical period/internship outside the university; 4 ECTS for optional practical projects/internships; 18 ECTS for practical courses,"no, but credits can be counted",no,1/4points,0/2points,1/3points,2/9points,,,,,,,,,,,,,,,,,,,,,,,,,,,,,,
Albert-Ludwigs-Universität Freiburg,Philosophische Fakultät at the Uni Freiburg,Applied Political Science (B.A.),Presence learning programme; full-time programme,,180,,interdisciplinary study course,,,76,27,24,95.9%,41:59[%m:%f],https://ranking.zeit.de/che/en/studiengang/18283,29.0%,50.0%,77:30,,27 weeks mandatory practical period/internship outside the university; 4 ECTS for optional practical projects/internships; 30 ECTS for practical courses,"yes, for the joint degree","yes, ""Joint degree"" mandatory",4/4points,2/2points,3/3points,9/9points,,,,,,,,,,,,,,,,,,,,,,,,,,,,,,
Albert-Ludwigs-Universität Freiburg,Philosophische Fakultät at the Uni Freiburg,Political Science (M.A.),,,120,,no interdisciplinary study course,,,75,31,18,5.7%,59:41[%m:%f],https://ranking.zeit.de/che/en/studiengang/18282,12.0%,25.0%,no admission restriction,,6 weeks mandatory practical period/internship outside the university; 18 ECTS for optional practical projects/internships; 10 ECTS for practical courses,"no, but credits can be counted",no,1/4points,2/2points,2/3points,5/9points,,,,,,,,,,,,,,,,,,,,,,,,,,,,,,
Albert-Ludwigs-Universität Freiburg,Philosophische Fakultät at the Uni Freiburg,Applied Political Science (M.A.),,,120,,no interdisciplinary study course,,,48,17,22,68.2%,33:67[%m:%f],https://ranking.zeit.de/che/en/studiengang/18284,44.0%,50.0%,17:30,,16 weeks mandatory practical period/internship outside the university; 10 ECTS for practical courses,"yes, for the joint degree","yes, ""Joint degree"" mandatory",4/4points,2/2points,3/3points,9/9points,,,,,,,,,,,,,,,,,,,,,,,,,,,,,,
Albert-Ludwigs-Universität Freiburg,Wirtschafts- und Verhaltenswissenschaftliche Fakultät at the Uni Freiburg,Psychology (B.Sc.),"presence learning programme, full-time",6semesters,180,,,,,490,135,107,79.3%,20:80[%m:%f],https://ranking.zeit.de/che/en/studiengang/22883,7.0%,,,,,"no, but credits for study abroad eligible",no,1/4points,1/2points,0/3points,2/9points,,,,,,"limited number of places, 100 places",,,,,,,,,,,,,,,,,,,,,,,,
Albert-Ludwigs-Universität Freiburg,Wirtschafts- und Verhaltenswissenschaftliche Fakultät at the Uni Freiburg,"Clinical Psychology, Neurosciences and Rehabilitation Sciences (M.Sc.)","presence learning programme, full-time",4semesters,120,,,,,165,74,57,86.8%,16:84[%m:%f],https://ranking.zeit.de/che/en/studiengang/24030,1.0%,,,,,"no, but credits for study abroad eligible",no,,,,No enough data available,,,,,,"limited number of places, 60 places",,,,,,,,,,,,,,,,,,,,,,,,
Albert-Ludwigs-Universität Freiburg,Wirtschafts- und Verhaltenswissenschaftliche Fakultät at the Uni Freiburg,"Clinical Psychology, Learning and Working (M.Sc.)","presence learning programme, full-time",4semesters,120,,,,,77,25,20,79.5%,25:75[%m:%f],https://ranking.zeit.de/che/en/studiengang/24663,1.0%,,,,,"no, but credits for study abroad eligible",no,,,,No enough data available,,,,,,"limited number of places, 30 places",,,,,,,,,,,,,,,,,,,,,,,,
Albert-Ludwigs-Universität Freiburg,Wirtschafts- und Verhaltenswissenschaftliche Fakultät at the Uni Freiburg,Sport Science - Motion and Health (B.Sc.),,6semesters,180,,no interdisciplinary study course,,,119,53,no graduates in the period of time surveyed,no graduates in the period of time surveyed,55:45[%m:%f],https://ranking.zeit.de/che/en/studiengang/34623,3.0%,16.0%,214:45,,26 weeks mandatory practical period/internship outside the university; 58 ECTS for practical courses,"no, but credits can be counted",no,,,,,4/4points,3/3points,1/2points,0/2points,8/11points,,,,,,,,,,,,,,,,,,,,,,,,,
Albert-Ludwigs-Universität Freiburg,Wirtschafts- und Verhaltenswissenschaftliche Fakultät at the Uni Freiburg,"Sport Science (B, 2 major subjects)",,6semesters,180,,interdisciplinary study course,,,164,55,no graduates in the period of time surveyed,no graduates in the period of time surveyed,51:49[%m:%f],https://ranking.zeit.de/che/en/studiengang/34624,0.0%,,230:50,,14 weeks mandatory practical period/internship outside the university; 65 ECTS for practical courses,"no, but credits can be counted",no,,,,,2/4points,3/3points,1/2points,0/2points,6/11points,,,,,,,,,,,,,,,,,,,,,,,,,
Albert-Ludwigs-Universität Freiburg,Wirtschafts- und Verhaltenswissenschaftliche Fakultät at the Uni Freiburg,Sport Science - Applied Motion and Health (M.Sc.),,4semesters,120,,no interdisciplinary study course,,,67,18,not calculated due to no graduates in academic year 2015,not calculated due to no graduates in academic year 2015,52:48[%m:%f],https://ranking.zeit.de/che/en/studiengang/34622,3.0%,38.0%,98:20,,24 weeks mandatory practical period/internship outside the university; 40 ECTS for practical courses,"no, but credits can be counted",no,2/4points,0/2points,2/3points,4/9points,4/4points,3/3points,1/2points,1/2points,9/11points,,,,,,,,,,,,,,,,,,,,,,,,,
Ruprecht-Karls-Universität Heidelberg,Fakultät für Biowissenschaften at the Uni Heidelberg,Biosciences (B.Sc.),,6semesters,180,,no data,27 ECTS from compulsory subjects,Scope of excursions:  2 compulsory elective ECTS,430,153,92,76.6%,32:68[%m:%f],https://ranking.zeit.de/che/en/studiengang/15203,,,,,,,,,,,,,,,,,,,,,,,,,,,,,,,,,,,,,,,,,
Ruprecht-Karls-Universität Heidelberg,Fakultät für Biowissenschaften at the Uni Heidelberg,Biochemistry (B.Sc.),,6semesters,180,,interdisciplinary study course,19 ECTS from compulsory subjects,,73,23,20,100.0%,41:59[%m:%f],https://ranking.zeit.de/che/en/studiengang/35018,,,,,,,,,,,,,,,,,,,,,,,,,,,,,,,,,,,,,,,,,
Ruprecht-Karls-Universität Heidelberg,Fakultät für Biowissenschaften at the Uni Heidelberg,Molecular Biosciences (M.Sc.),,4semesters,120,,no data,no data,,406,124,117,,38:62[%m:%f],https://ranking.zeit.de/che/en/studiengang/20793,33.0%,100.0%,,,,,,,,,,,,,,,,,,,,,,,,,,,,,,,,,,,,,,,
Ruprecht-Karls-Universität Heidelberg,Fakultät für Biowissenschaften at the Uni Heidelberg,Biochemistry (M.Sc.),,4semesters,120,,no data,no data,,69,21,no graduates in the period of time surveyed,,49:51[%m:%f],https://ranking.zeit.de/che/en/studiengang/37828,9.0%,100.0%,,,,,,,,,,,,,,,,,,,,,,,,,,,,,,,,,,,,,,,
Ruprecht-Karls-Universität Heidelberg,Fakultät Chemie und Geowissenschaften at the Uni Heidelberg,Chemistry (B.Sc.),,6semesters,180,,,,,363,135,45,,72:28[%m:%f],https://ranking.zeit.de/che/en/studiengang/36367,,,no admission restriction,,,,,,,,,,,,,,,,,,,,,,,,,,,,,,,,,,,,,,
Ruprecht-Karls-Universität Heidelberg,Fakultät Chemie und Geowissenschaften at the Uni Heidelberg,Biochemistry (B.Sc.),,6semesters,180,,,,,73,23,no data available,,41:59[%m:%f],https://ranking.zeit.de/che/en/studiengang/37957,,,,,,,,,,,,,,,,,,,,,,,,,,,,,,,,,,,,,,,,,
Ruprecht-Karls-Universität Heidelberg,Fakultät Chemie und Geowissenschaften at the Uni Heidelberg,Chemistry (M.Sc.),,4semesters,120,,,,,212,75,,,73:27[%m:%f],https://ranking.zeit.de/che/en/studiengang/36368,,,no admission restriction,,,,,,,,,,,,,,,,,,,,,,,,,,,,,,,,,,,,,,
Ruprecht-Karls-Universität Heidelberg,Fakultät Chemie und Geowissenschaften at the Uni Heidelberg,Biochemistry (M.Sc.),,4semesters,120,,,,,69,21,,,49:51[%m:%f],https://ranking.zeit.de/che/en/studiengang/37829,,,,,,,,,,,,,,,,,,,,,,,,,,,,,,,,,,,,,,,,,
Ruprecht-Karls-Universität Heidelberg,Medizinische Fakultät Heidelberg at the Uni Heidelberg,Medical Computer Science (B.Sc.),,6semesters,180,,no interdisciplinary study course,,,124,43,38,83.1%,57:43[%m:%f],https://ranking.zeit.de/che/en/studiengang/22337,,,133:42,"Software-Engineering, Medical Informatics",35 ECTS for practical courses,,,,,,Not enough data available,0/4points,3/3points,2/2points,2/2points,7/11points,,,,,,,,,,,,,,,,,,,,,,,,,
Ruprecht-Karls-Universität Heidelberg,Medizinische Fakultät Heidelberg at the Uni Heidelberg,Medical Computer Science (M.Sc.),,4semesters,120,,no interdisciplinary study course,,,71,25,22,79.1%,59:41[%m:%f],https://ranking.zeit.de/che/en/studiengang/22338,,5.0%,32:15,"Bioinformatics, Media Computer Science, Medical Informatics",28 ECTS for practical courses,,,1/4points,0/2points,1/3points,2/9points,0/4points,2/3points,2/2points,2/2points,6/11points,,,,,,,,,,,,,,,,,,,,,,,,,
Ruprecht-Karls-Universität Heidelberg,Fakultät für Mathematik und Informatik at the Uni Heidelberg,Applied Computer Science (B.Sc.),Presence learning programme; full-time programme,6semesters,180,,no interdisciplinary study course,,,392,89,32,42.9%,85:15[%m:%f],https://ranking.zeit.de/che/en/studiengang/7639,15.0%,,no admission restriction,"Applied Computer Science, Bioinformatics, Geoinformatics, Engineering Information Technology / Computer Engineering, Software-Engineering, Medical Informatics, IT-Security",8 ECTS for optional practical projects/internships;,"no, but credits can be counted",no,1/4points,2/2points,0/3points,3/9points,0/4points,0/3points,0/2points,0/2points,0/11points,,,,,,,,,,,,,,,,,,,,,,,,,
Ruprecht-Karls-Universität Heidelberg,Fakultät für Mathematik und Informatik at the Uni Heidelberg,"Applied Computer Science (B.Sc.,  option for teacher qualification)",,6semesters,180,,interdisciplinary study course,,,24,,no graduates in the period of time surveyed,no graduates in the period of time surveyed,71:29[%m:%f],https://ranking.zeit.de/che/en/studiengang/40400,4.0%,,no admission restriction,Applied Computer Science,8 ECTS for optional practical projects/internships;,"no, but credits can be counted",no,,,,Not ranked,,,,,Not ranked,,,,,,,,,,,,,,,,,,,,,,,,,
Ruprecht-Karls-Universität Heidelberg,Fakultät für Mathematik und Informatik at the Uni Heidelberg,Applied Computer Science (M.Sc.),,4semesters,120,,no interdisciplinary study course,,,115,43,22,44.4%,81:19[%m:%f],https://ranking.zeit.de/che/en/studiengang/14860,10.0%,50.0%,no admission restriction,"Applied Computer Science, Bioinformatics, Geoinformatics, Engineering Information Technology / Computer Engineering, Software-Engineering, Medical Informatics, IT-Security",,"no, but credits can be counted",no,1/4points,2/2points,3/3points,6/9points,0/4points,0/3points,0/2points,0/2points,0/11points,,,,,,,,,,,,,,,,,,,,,,,,,
Ruprecht-Karls-Universität Heidelberg,Fakultät für Mathematik und Informatik at the Uni Heidelberg,Computer Engineering (M.Sc.),,4semesters,120,,no interdisciplinary study course,,,53,12,<10,"not calculated, because of <10 gradues per year on average",98:2[%m:%f],https://ranking.zeit.de/che/en/studiengang/34103,8.0%,,no admission restriction,"Engineering Information Technology / Computer Engineering, Computer Engineering",,no data,no,1/4points,1/2points,0/3points,2/9points,0/4points,0/3points,0/2points,0/2points,0/11points,,,,,,,,,,,,,,,,,,,,,,,,,
Ruprecht-Karls-Universität Heidelberg,Medizinische Fakultät Heidelberg at the Uni Heidelberg,Dentistry (State Examination),Presence learning programme; full-time programme,,,,,,,485,80,60,,40:60[%m:%f],https://ranking.zeit.de/che/en/studiengang/6133,8.0%,,,,,,,,,,,,,,,,,,,,,,,,,,,,,,,,,,,,,,,,
Ruprecht-Karls-Universität Heidelberg,Fakultät für Wirtschafts- und Sozialwissenschaften at the Uni Heidelberg,Political Economics (B.Sc.),,6semesters,180,,,,,880,248,128,69.0%,64:36[%m:%f],https://ranking.zeit.de/che/en/studiengang/18840,7.0%,37.8%,,,4 weeks practice/internship outside university mandatory; 7 ECTS max. countable for optional internships; 10 ECTS max. countable for practice-oriented courses,not mandatory; credits countable,no,,,,,,,,,,number of places not limited,,,,,,,,,,,,,,,,,,,,,,,,
Ruprecht-Karls-Universität Heidelberg,Fakultät für Wirtschafts- und Sozialwissenschaften at the Uni Heidelberg,Economics (M.Sc.),,4semesters,120,,,,,171,55,59,36.4%,66:34[%m:%f],https://ranking.zeit.de/che/en/studiengang/25748,34.0%,100.0%,,,,not mandatory; credits countable,no,,,,,,,,,,number of places not limited,,,,,,,,,,,,,,,,,,,,,,,,
Ruprecht-Karls-Universität Heidelberg,Fakultät für Verhaltens- und Empirische Kulturwissenschaften at the Uni Heidelberg,"Education Science (Two-Subject-B.A., 50%, first major)","presence learning programme, full-time, part-time possible",6semesters,96,"54 credits in mandatory modules, 42 credits in compulsory elective modules",,,,181,12,50,57.6%,,https://ranking.zeit.de/che/en/studiengang/24579,4.0%,,,Adult Education/Further Education,10 ECTS max. permissible for practice-oriented courses,,,,,,,0/4points,2/3points,0/2points,0/2points,2/11points,"limited number of places, 80 places",,,,,,,,,,,,,,,,,,,,,,,,
Ruprecht-Karls-Universität Heidelberg,Fakultät für Verhaltens- und Empirische Kulturwissenschaften at the Uni Heidelberg,Education Science with Key Area Organisational Development (M.A.),"presence learning programme, full-time, part-time possible",4semesters,120,no data,,,,87,18,12,not calculated because <10 graduates in one of the years surveyed,,https://ranking.zeit.de/che/en/studiengang/29193,2.0%,,,Adult Education/Further Education,,,,,,,,,,,,Not enough data available,"limited number of places, 20 places",,,,,,,,,,,,,,,,,,,,,,,,
Ruprecht-Karls-Universität Heidelberg,Fakultät für Verhaltens- und Empirische Kulturwissenschaften at the Uni Heidelberg,Education Science (B.A. major 75%),"presence learning programme, full-time, part-time possible",6semesters,145,"106 credits in mandatory modules, 39 credits in compulsory elective modules",,,,,0,no graduates until WS 2017/18,no graduates until WS 2017/18,,https://ranking.zeit.de/che/en/studiengang/41454,,,,Adult Education/Further Education,7 weeks practice/internship outside the university obligatory; 12 ECTS max. permissible for practice-oriented courses,,,,,,,0/4points,2/3points,0/2points,0/2points,2/11points,number of places not limited,,,,,,,,,,,,,,,,,,,,,,,,
Ruprecht-Karls-Universität Heidelberg,Fakultät für Verhaltens- und Empirische Kulturwissenschaften at the Uni Heidelberg,"Education Science (B.A., two subject, 50%, secondary major)","presence learning programme, full-time, part-time possible",6semesters,84,"42 credits in mandatory modules, 42 credits in compulsory elective modules",,,,32,7,<10,"not calculated, <10 graduates/year",,https://ranking.zeit.de/che/en/studiengang/41455,12.0%,,,Adult Education/Further Education,10 ECTS max. permissible for practice-oriented courses,,,,,,,0/4points,2/3points,0/2points,0/2points,2/11points,"limited number of places, 80 places",,,,,,,,,,,,,,,,,,,,,,,,
Ruprecht-Karls-Universität Heidelberg,Neuphilologische Fakultät at the Uni Heidelberg,"English Studies/English Language and Literature (B.A., interdisciplinary)","presence learning programme, full-time, part-time possible",6semesters,180,,,,,584,222,18,68.6%,,https://ranking.zeit.de/che/en/studiengang/37640,3.0%,100.0%,,,,"no, but credits for study abroad eligible",no,1/4points,1/2points,3/3points,5/9points,,,,,,number of places not limited,,,,,,,,,,,,,,,,,,,,,,,,
Ruprecht-Karls-Universität Heidelberg,Neuphilologische Fakultät at the Uni Heidelberg,"English Studies (B.A., 75%)","presence learning programme, full-time, part-time possible",6semesters,no data,,,,,162,50,21,71.4%,,https://ranking.zeit.de/che/en/studiengang/41399,16.0%,100.0%,,,,"no, but credits for study abroad eligible",no,1/4points,2/2points,3/3points,6/9points,,,,,,number of places not limited,,,,,,,,,,,,,,,,,,,,,,,,
Ruprecht-Karls-Universität Heidelberg,Neuphilologische Fakultät at the Uni Heidelberg,English Studies (M.A.),"presence learning programme, full-time, part-time possible",4semesters,120,,,,,135,30,<10,"not calculated, <10 graduates/year",,https://ranking.zeit.de/che/en/studiengang/24161,53.0%,100.0%,,,,"no, but credits for study abroad eligible",no,1/4points,2/2points,3/3points,6/9points,,,,,,number of places not limited,,,,,,,,,,,,,,,,,,,,,,,,
Ruprecht-Karls-Universität Heidelberg,Fakultät Chemie und Geowissenschaften at the Uni Heidelberg,Geography (B.Sc.),,6semesters,180,,no interdisciplinary study course,,Scope of excursions: 12 compulsory ECTS,248,50,46,81.5%,49:51[%m:%f],https://ranking.zeit.de/che/en/studiengang/21075,5.0%,10.0%,166:60,,8 weeks mandatory practical period/internship outside the university; 30 ECTS for practical courses,"no, but credits can be counted",no,1/4points,1/2points,1/3points,3/9points,2/4points,3/3points,2/2points,0/2points,8/12points,,1/1points,,,,,,,,,,,,,,,,,,,,,,,
Ruprecht-Karls-Universität Heidelberg,Fakultät Chemie und Geowissenschaften at the Uni Heidelberg,Geography (M.Sc.),,4semesters,120,,no interdisciplinary study course,,Scope of excursions:  65 compulsory elective ECTS,136,37,32,18.8%,51:49[%m:%f],https://ranking.zeit.de/che/en/studiengang/21077,7.0%,15.0%,no admission restriction,,6 weeks mandatory practical period/internship outside the university; 25 ECTS for practical courses,"no, but credits can be counted",no,1/4points,1/2points,1/3points,3/9points,0/4points,2/3points,2/2points,1/2points,6/12points,,1/1points,,,,,,,,,,,,,,,,,,,,,,,
Ruprecht-Karls-Universität Heidelberg,Fakultät Chemie und Geowissenschaften at the Uni Heidelberg,Geosciences (B.Sc.),,6semesters,180,,no interdisciplinary study course,,Scope of excursions: 20 compulsory ECTS and 20 compulsory elective ECTS,83,33,24,95.8%,51:49[%m:%f],https://ranking.zeit.de/che/en/studiengang/20895,2.0%,,no admission restriction,,6 weeks mandatory practical period/internship outside the university; 9 ECTS for optional practical projects/internships; 18 ECTS for practical courses,not scheduled,no,1/4points,0/2points,0/3points,1/9points,0/4points,2/3points,0/2points,0/2points,3/12points,,1/1points,,,,,,,,,,,,,,,,,,,,,,,
Ruprecht-Karls-Universität Heidelberg,Fakultät Chemie und Geowissenschaften at the Uni Heidelberg,Geosciences (M.Sc.),,4semesters,120,,no interdisciplinary study course,,Scope of excursions: 12 compulsory ECTS and 17 compulsory elective ECTS,68,22,12,73.9%,68:32[%m:%f],https://ranking.zeit.de/che/en/studiengang/20896,4.0%,,no admission restriction,,18 ECTS for practical courses,not scheduled,no,1/4points,0/2points,0/3points,1/9points,0/4points,2/3points,0/2points,0/2points,3/12points,,1/1points,,,,,,,,,,,,,,,,,,,,,,,
Ruprecht-Karls-Universität Heidelberg,Neuphilologische Fakultät at the Uni Heidelberg,"German Studies (B.A., interdisciplinary)","presence learning programme, full-time, part-time possible",6semesters,84,,,,,502,204,no graduates until WS 2017/18,no graduates until WS 2017/18,,https://ranking.zeit.de/che/en/studiengang/37973,3.0%,,,,,"no, but credits for study abroad eligible",no,1/4points,2/2points,0/3points,3/9points,,,,,,number of places not limited,,,,,,,,,,,,,,,,,,,,,,,,
Ruprecht-Karls-Universität Heidelberg,Neuphilologische Fakultät at the Uni Heidelberg,"German Studies (B.A., dual subject)","presence learning programme, full-time, part-time possible",6semesters,180,,,,,80,25,29,62.1%,,https://ranking.zeit.de/che/en/studiengang/36117,5.0%,,,,,"no, but credits for study abroad eligible",no,1/4points,2/2points,0/3points,3/9points,,,,,,number of places not limited,,,,,,,,,,,,,,,,,,,,,,,,
Ruprecht-Karls-Universität Heidelberg,Neuphilologische Fakultät at the Uni Heidelberg,German Language and Literature (M.A.),"presence learning programme, full-time, part-time possible",4semesters,120,,,,,54,17,<10,"not calculated, <10 graduates/year",,https://ranking.zeit.de/che/en/studiengang/37454,22.0%,,,,,"no, but credits for study abroad eligible","yes, ""joint degree"" optional",3/4points,2/2points,0/3points,5/9points,,,,,,number of places not limited,,,,,,,,,,,,,,,,,,,,,,,,
Ruprecht-Karls-Universität Heidelberg,Neuphilologische Fakultät at the Uni Heidelberg,Editorial Science and Text Criticism (M.A.),"presence learning programme, full-time",4semesters,120,,,,,14,3,<10,"not calculated, <10 graduates/year",,https://ranking.zeit.de/che/en/studiengang/37455,0.0%,,,,,"no, but credits for study abroad eligible",no,1/4points,2/2points,0/3points,3/9points,,,,,,number of places not limited,,,,,,,,,,,,,,,,,,,,,,,,
Ruprecht-Karls-Universität Heidelberg,Juristische Fakultät at the Uni Heidelberg,Law (St),,9semesters,,,,,,"2,285",391,,,41:59[%m:%f],https://ranking.zeit.de/che/en/studiengang/19037,,,,,,,,,,,,,,,,,"limited number of places, 386 places",,,,,,,,,,,,,,,,,,,,,,,,
Ruprecht-Karls-Universität Heidelberg,Juristische Fakultät at the Uni Heidelberg,Postgraduate course for lawyers who graduated outside Germany (LL.M.),"Presence learning programme, full-time programme for law graduates abroad",2semesters,60,,,,,37,15,,,65:35[%m:%f],https://ranking.zeit.de/che/en/studiengang/25917,,,,,,,,,,,,,,,,,number of places not limited,,,,,,,,,,,,,,,,,,,,,,,,
Ruprecht-Karls-Universität Heidelberg,Juristische Fakultät at the Uni Heidelberg,Postgraduate course for International Law (LL.M.),"Presence learning programme, full-time or part-time programme or extra-occupational",2semesters,60,,,,,23,22,,,57:43[%m:%f],https://ranking.zeit.de/che/en/studiengang/25918,,,,,,,,,,,,,,,,,number of places not limited,,,,,,,,,,,,,,,,,,,,,,,,
Ruprecht-Karls-Universität Heidelberg,Juristische Fakultät at the Uni Heidelberg,Postgraduate course for Corporate Restructuring (LL.M. corp. Restruc.),"Presence learning programme, full-time or part-time programme or extra-occupational",2semesters,60,,,,,37,11,,,78:22[%m:%f],https://ranking.zeit.de/che/en/studiengang/25879,,,,,,,,,,,,,,,,,"limited number of places, 30 places",,,,,,,,,,,,,,,,,,,,,,,,
Ruprecht-Karls-Universität Heidelberg,Fakultät für Mathematik und Informatik at the Uni Heidelberg,Mathematics (B.Sc.),,6semesters,180,,no interdisciplinary study course,,,491,202,52,78.8%,65:35[%m:%f],https://ranking.zeit.de/che/en/studiengang/21816,8.0%,,no admission restriction,Mathematics,8 ECTS for optional practical projects/internships;,"no, but credits can be counted",no,1/4points,1/2points,0/3points,2/9points,,,,,,,,,,,,,,,,,,,,,,,,,,,,,,
Ruprecht-Karls-Universität Heidelberg,Fakultät für Mathematik und Informatik at the Uni Heidelberg,Mathematics (M.Sc.),,4semesters,120,,no interdisciplinary study course,,,115,32,29,50.0%,77:23[%m:%f],https://ranking.zeit.de/che/en/studiengang/21817,10.0%,25.0%,no admission restriction,"Mathematics, Computational Mathematics",6 ECTS for optional practical projects/internships;,"no, but credits can be counted",no,1/4points,2/2points,2/3points,5/9points,,,,,,,,,,,,,,,,,,,,,,,,,,,,,,
Ruprecht-Karls-Universität Heidelberg,Fakultät für Mathematik und Informatik at the Uni Heidelberg,Scientific Computing (M.Sc.),,4semesters,120,,no interdisciplinary study course,,,85,20,<10,"not calculated, because of <10 gradues per year on average",67:33[%m:%f],https://ranking.zeit.de/che/en/studiengang/40096,73.0%,90.0%,no admission restriction,Computational Mathematics,6 ECTS for optional practical projects/internships;,"no, but credits can be counted",no,1/4points,2/2points,3/3points,6/9points,,,,,,,,,,,,,,,,,,,,,,,,,,,,,,
Ruprecht-Karls-Universität Heidelberg,Medizinische Fakultät Heidelberg at the Uni Heidelberg,Medicine (State Examination),Presence learning programme; full-time programme,,,,,,,"2,557",340,467,,49:51[%m:%f],https://ranking.zeit.de/che/en/studiengang/6100,12.0%,,,,,,,,,,,,,,,,,,,,,,,,,,,,,,,,,,,,,,,,
Ruprecht-Karls-Universität Heidelberg,Medizinische Fakultät Heidelberg at the Uni Heidelberg,Interprofessional Health Care (B.Sc.),,,,,,,,74,13,only calculated for state examination degree courses,,15:85[%m:%f],https://ranking.zeit.de/che/en/studiengang/27473,1.0%,,,,,,,,,,,,,,,,,,,,,,,,,,,,,,,,,,,,,,,,
Ruprecht-Karls-Universität Heidelberg,Medizinische Fakultät Heidelberg at the Uni Heidelberg,Care Research and Implementation Science in Health Care (M.Sc.),,,120,,no interdisciplinary study course,,,52,21,,,15:85[%m:%f],https://ranking.zeit.de/che/en/studiengang/40314,6.0%,,55:20,,,not scheduled,no,1/4points,1/2points,0/3points,2/9points,,,,,,,,,,,,,,,,,,,,,,,,,,,,,,
Ruprecht-Karls-Universität Heidelberg,Medizinische Fakultät Heidelberg at the Uni Heidelberg,Medical Education (M.Sc.),,,60,,,,,50,25,,,60:40[%m:%f],https://ranking.zeit.de/che/en/studiengang/34104,2.0%,,32:25,,,not scheduled,no,,,,Not ranked,,,,,,,,,,,,,,,,,,,,,,,,,,,,,,
Ruprecht-Karls-Universität Heidelberg,Medizinische Fakultät Heidelberg at the Uni Heidelberg,Medical Biometry/Biostatistics (M.Sc.),,,120,,no interdisciplinary study course,,,32,,,,66:34[%m:%f],https://ranking.zeit.de/che/en/studiengang/34627,12.0%,,no admission restriction,,,not scheduled,no,1/4points,2/2points,0/3points,3/9points,,,,,,,,,,,,,,,,,,,,,,,,,,,,,,
Ruprecht-Karls-Universität Heidelberg,Medizinische Fakultät Heidelberg at the Uni Heidelberg,International Health (M.Sc.),,,60,,no interdisciplinary study course,,,30,22,,,33:67[%m:%f],https://ranking.zeit.de/che/en/studiengang/34105,87.0%,100.0%,320:25,,,no data,no,1/4points,2/2points,3/3points,6/9points,,,,,,,,,,,,,,,,,,,,,,,,,,,,,,
Ruprecht-Karls-Universität Heidelberg,Fakultät für Biowissenschaften at the Uni Heidelberg,Pharmacy (State Examination),Presence learning programme; full-time programme,,,,,,,195,44,41,,21:79[%m:%f],https://ranking.zeit.de/che/en/studiengang/7432,,,259:45,,,,,,,,,,,,,,,,,,,,,,,,,,,,,,,,,,,,,,
Ruprecht-Karls-Universität Heidelberg,Fakultät für Biowissenschaften at the Uni Heidelberg,Molecular Biotechnology (B.Sc.),Presence learning programme; full-time programme,,,,,,,274,86,only calculated for state examination degree courses,,39:61[%m:%f],https://ranking.zeit.de/che/en/studiengang/15205,,,535:83,,,,,,,,,,,,,,,,,,,,,,,,,,,,,,,,,,,,,,
Ruprecht-Karls-Universität Heidelberg,Fakultät für Biowissenschaften at the Uni Heidelberg,Molecular Biotechnology (M.Sc.),,4semesters,120,,,,,224,59,,,46:54[%m:%f],https://ranking.zeit.de/che/en/studiengang/15206,,,90:50,,,,,,,,,,,,,,,,,,,,,,,,,,,,,,,,,,,,,,
Ruprecht-Karls-Universität Heidelberg,Fakultät für Physik und Astronomie at the Uni Heidelberg,Physics (B.Sc.),,6semesters,180,,no interdisciplinary study course,24 ECTS from elective subjects,,"1,165",361,234,96.8%,78:22[%m:%f],https://ranking.zeit.de/che/en/studiengang/22072,7.0%,0.0%,no admission restriction,,,"no, but credits can be counted",no,1/4points,1/2points,0/3points,2/10points,,,,,,,,,0/1points,,,,,,,,,,,,,,,,,,,,,
Ruprecht-Karls-Universität Heidelberg,Fakultät für Physik und Astronomie at the Uni Heidelberg,Physics (M.Sc.),,4semesters,120,,no interdisciplinary study course,no data,,628,210,176,70.2%,81:19[%m:%f],https://ranking.zeit.de/che/en/studiengang/22073,14.0%,100.0%,no admission restriction,,,"no, but credits can be counted",no,1/4points,2/2points,3/3points,6/10points,,,,,,,,,0/1points,,,,,,,,,,,,,,,,,,,,,
Ruprecht-Karls-Universität Heidelberg,Fakultät für Wirtschafts- und Sozialwissenschaften at the Uni Heidelberg,Political Science (B.A.),Presence learning programme; full-time programme,,180,,no interdisciplinary study course,,,496,142,73,92.5%,49:51[%m:%f],https://ranking.zeit.de/che/en/studiengang/18227,8.0%,10.0%,1051:138,,10 weeks mandatory practical period/internship outside the university; 6 ECTS for optional practical projects/internships; 6 ECTS for practical courses,"no, but credits can be counted",no,1/4points,1/2points,1/3points,3/9points,,,,,,,,,,,,,,,,,,,,,,,,,,,,,,
Ruprecht-Karls-Universität Heidelberg,Fakultät für Wirtschafts- und Sozialwissenschaften at the Uni Heidelberg,Political Science (M.A.),,,120,,no interdisciplinary study course,,,148,53,34,69.6%,51:49[%m:%f],https://ranking.zeit.de/che/en/studiengang/25206,16.0%,25.0%,130:62,,10 ECTS for practical courses,"no, but credits can be counted",no,1/4points,2/2points,2/3points,5/9points,,,,,,,,,,,,,,,,,,,,,,,,,,,,,,
Ruprecht-Karls-Universität Heidelberg,Fakultät für Verhaltens- und Empirische Kulturwissenschaften at the Uni Heidelberg,Psychology (B.Sc.),"presence learning programme, full-time, part-time or extra-occupational possible",6semesters,180,,,,,364,92,80,89.3%,17:83[%m:%f],https://ranking.zeit.de/che/en/studiengang/36118,11.0%,2.0%,,,,"no, but credits for study abroad eligible",no,1/4points,2/2points,0/3points,3/9points,,,,,,"limited number of places, 90 places",,,,,,,,,,,,,,,,,,,,,,,,
Ruprecht-Karls-Universität Heidelberg,Fakultät für Verhaltens- und Empirische Kulturwissenschaften at the Uni Heidelberg,Psychology (M.Sc.),"presence learning programme, full-time, also extra-occupational, interdisciplinary",4semesters,120,,,,,264,98,85,75.9%,19:81[%m:%f],https://ranking.zeit.de/che/en/studiengang/36119,4.0%,10.0%,,,,"no, but credits for study abroad eligible",no,1/4points,0/2points,1/3points,2/9points,,,,,,"limited number of places, 90 places",,,,,,,,,,,,,,,,,,,,,,,,
Ruprecht-Karls-Universität Heidelberg,Neuphilologische Fakultät at the Uni Heidelberg,Romance Studies / Spanish (B),"presence learning programme, full-time",6semesters,180,,,,,166,51,<10,"not calculated, <10 graduates/year",,https://ranking.zeit.de/che/en/studiengang/22759,7.0%,,,,,"no, but credits for study abroad eligible",no,,,,Not ranked,,,,,,number of places not limited,,,,,,,,,,,,,,,,,,,,,,,,
Ruprecht-Karls-Universität Heidelberg,Neuphilologische Fakultät at the Uni Heidelberg,Romance Studies / French (B),"presence learning programme, full-time",6semesters,180,,,,,131,47,<10,"not calculated, <10 graduates/year",,https://ranking.zeit.de/che/en/studiengang/22757,5.0%,,,,,"no, but credits for study abroad eligible",no,,,,Not ranked,,,,,,number of places not limited,,,,,,,,,,,,,,,,,,,,,,,,
Ruprecht-Karls-Universität Heidelberg,Neuphilologische Fakultät at the Uni Heidelberg,Romance Studies / Italian (B),"presence learning programme, full-time",6semesters,180,,,,,33,8,<10,"not calculated, <10 graduates/year",,https://ranking.zeit.de/che/en/studiengang/22758,12.0%,,,,,"no, but credits for study abroad eligible",no,,,,Not ranked,,,,,,number of places not limited,,,,,,,,,,,,,,,,,,,,,,,,
Ruprecht-Karls-Universität Heidelberg,Neuphilologische Fakultät at the Uni Heidelberg,Estudios iberoamericanos. Teoría y metodología del contacto / Latin American Studies. Contact Theories and Methods (MA),"presence learning programme, full-time, part-time possible",4semesters,120,,,,,19,9,no graduates until WS 2017/18,no graduates until WS 2017/18,,https://ranking.zeit.de/che/en/studiengang/41479,53.0%,100.0%,,,,"no, but credits for study abroad eligible",no,1/4points,2/2points,3/3points,6/9points,,,,,,number of places not limited,,,,,,,,,,,,,,,,,,,,,,,,
Ruprecht-Karls-Universität Heidelberg,Neuphilologische Fakultät at the Uni Heidelberg,Études transculturelles. Littératures et contacs linguistiques dans l’espace francophone / Transcultural Studies. Literatures and Language Contacts in Francophone Regions (MA),"presence learning programme, full-time, part-time possible",4semesters,120,,,,,7,6,no graduates until WS 2017/18,no graduates until WS 2017/18,,https://ranking.zeit.de/che/en/studiengang/41480,29.0%,100.0%,,,,"yes, in combination with a ""joint programme""","yes, ""joint degree"" optional",3/4points,2/2points,3/3points,8/9points,,,,,,number of places not limited,,,,,,,,,,,,,,,,,,,,,,,,
Ruprecht-Karls-Universität Heidelberg,Neuphilologische Fakultät at the Uni Heidelberg,"L‘Ìtalia a contatto – lingue, letterature, arti / Contact With Italy – Literature, Arts, Languages, Cultures (MA)","presence learning programme, full-time, part-time possible",4semesters,120,,,,,4,3,no graduates until WS 2017/18,no graduates until WS 2017/18,,https://ranking.zeit.de/che/en/studiengang/41481,25.0%,100.0%,,,,"no, but credits for study abroad eligible",no,1/4points,2/2points,3/3points,6/9points,,,,,,number of places not limited,,,,,,,,,,,,,,,,,,,,,,,,
Ruprecht-Karls-Universität Heidelberg,Fakultät für Verhaltens- und Empirische Kulturwissenschaften at the Uni Heidelberg,Sport Science (B.Sc.),,6semesters,180,,no interdisciplinary study course,,,107,25,22,68.9%,54:46[%m:%f],https://ranking.zeit.de/che/en/studiengang/40513,2.0%,,128:25,,10 weeks mandatory practical period/internship outside the university; 30 ECTS for practical courses,"no, but credits can be counted",no,,,,,2/4points,3/3points,2/2points,2/2points,9/11points,,,,,,,,,,,,,,,,,,,,,,,,,
Ruprecht-Karls-Universität Heidelberg,Fakultät für Verhaltens- und Empirische Kulturwissenschaften at the Uni Heidelberg,"Sports Science (multi-disciplinary, B.Sc.)",,6semesters,180,,interdisciplinary study course,,,137,56,no graduates in the period of time surveyed,no graduates in the period of time surveyed,53:47[%m:%f],https://ranking.zeit.de/che/en/studiengang/40512,1.0%,,267:59,,5 weeks mandatory practical period/internship outside the university; 2 ECTS for practical courses,"no, but credits can be counted",no,,,,,0/4points,0/3points,2/2points,2/2points,4/11points,,,,,,,,,,,,,,,,,,,,,,,,,
Ruprecht-Karls-Universität Heidelberg,Fakultät für Verhaltens- und Empirische Kulturwissenschaften at the Uni Heidelberg,Sport and Exercise for Children and Teenagers (M.Sc.),,4semesters,120,,no interdisciplinary study course,,,63,23,13,57.7%,43:57[%m:%f],https://ranking.zeit.de/che/en/studiengang/34333,3.0%,,44:27,,10 weeks mandatory practical period/internship outside the university; 20 ECTS for practical courses,"no, but credits can be counted",no,1/4points,0/2points,0/3points,1/9points,2/4points,2/3points,2/2points,2/2points,8/11points,,,,,,,,,,,,,,,,,,,,,,,,,
Universität Hohenheim,Fakultät Naturwissenschaften at the Uni Hohenheim,Biology (B.Sc.),,6semesters,180,,no interdisciplinary study course,21 ECTS from compulsory subjects; 60 ECTS from elective subjects,Scope of excursions:  15 compulsory elective ECTS,272,99,63,78.6%,32:68[%m:%f],https://ranking.zeit.de/che/en/studiengang/20635,,,,,,,,,,,,,,,,,,,,,,,,,,,,,,,,,,,,,,,,,
Universität Hohenheim,Fakultät Naturwissenschaften at the Uni Hohenheim,Biology (M.Sc.),,4semesters,120,,no interdisciplinary study course,no data,Scope of excursions:  15 compulsory elective ECTS,98,17,32,,28:72[%m:%f],https://ranking.zeit.de/che/en/studiengang/22091,0.0%,70.0%,,,,,,,,,,,,,,,,,,,,,,,,,,,,,,,,,,,,,,,
Universität Hohenheim,Fakultät Naturwissenschaften at the Uni Hohenheim,Food Science and Biotechnology (B.Sc.),"presence learning programme, full-time",6semesters,180,"36 credits in mandatory modules, 30 credits in compulsory elective modules",,,,349,119,74,95.9%,27:73[%m:%f],https://ranking.zeit.de/che/en/studiengang/36656,1.0%,25.0%,,Biotechnology,18 ECTS max. permissible for practice-oriented courses,"no, but credits for study abroad eligible",no,,0/2points,2/3points,3/9points,0/4points,2/3points,1/2points,0/2points,3/11points,"limited number of places, 125 places",,7.3semesters,,,,,,,,,,,,,,,,,,,,,,
Universität Hohenheim,Fakultät Naturwissenschaften at the Uni Hohenheim,Food Science und Engineering (M.Sc.),"presence learning programme, full-time",4semesters,120,no data,,,,112,27,33,63.6%,25:75[%m:%f],https://ranking.zeit.de/che/en/studiengang/36654,18.0%,100.0%,,Biotechnology,,"no, but credits for study abroad eligible",no,,2/2points,3/3points,6/9points,,,,,Not enough data available,"limited number of places, 48 places",,5.4semesters,,,,,,,,,,,,,,,,,,,,,,
Universität Hohenheim,Fakultät Naturwissenschaften at the Uni Hohenheim,Food Biotechnology (M.Sc.),"presence learning programme, full-time",4semesters,120,no data,,,,57,13,17,48.5%,42:58[%m:%f],https://ranking.zeit.de/che/en/studiengang/36655,14.0%,100.0%,,Biotechnology,,"no, but credits for study abroad eligible",no,,2/2points,3/3points,6/9points,,,,,Not enough data available,"limited number of places, 24 places",,5.4semesters,,,,,,,,,,,,,,,,,,,,,,
Universität Hohenheim,Fakultät Naturwissenschaften at the Uni Hohenheim,Food Chemistry (M.Sc.),"presence learning programme, full-time",4semesters,120,no data,,,,45,21,10,not calculated because <10 graduates in one of the years surveyed,16:84[%m:%f],https://ranking.zeit.de/che/en/studiengang/37327,2.0%,25.0%,,Chemical Engineering,10 ECTS max. permissible for practice-oriented courses,"no, but credits for study abroad eligible",no,,0/2points,2/3points,3/9points,0/4points,2/3points,1/2points,0/2points,3/11points,"limited number of places, 25 places",,5.0semesters,,,,,,,,,,,,,,,,,,,,,,
Universität Hohenheim,Gemeinsame Kommission Wirtschaftsinformatik der Universitäten Hohenheim und Stuttgart at the Uni Hohenheim,Business Informatics (B.Sc.),"Presence learning programme; full-time programme, equally management and computing oriented",6semesters,180,,,,,184,59,20,77.5%,73:27[%m:%f],https://ranking.zeit.de/che/en/studiengang/38819,7.0%,15.0%,,,27 ECTS max. countable for practice-oriented courses,not mandatory; credits countable,no,1/5points,1/3points,1/3points,3/13points,0/4points,2/3points,2/3points,1/2points,5/12points,"limited number of places, 60 places",,,,,,0/2Points,,,,,,,,,,,,,,,,,,
Universität Hohenheim,Gemeinsame Kommission Wirtschaftsinformatik der Universitäten Hohenheim und Stuttgart at the Uni Hohenheim,Business Informatics (M.Sc.),"Presence learning programme; full-time programme, equally management and computing oriented",4semesters,120,,,,,90,33,18,91.4%,76:24[%m:%f],https://ranking.zeit.de/che/en/studiengang/14111,4.0%,40.0%,,,30 ECTS max. countable for practice-oriented courses,not mandatory; credits countable,no,1/5points,1/3points,2/3points,6/13points,0/4points,3/3points,2/3points,2/2points,7/12points,"limited number of places, 25 places",,,,,,2/2Points,,,,,,,,,,,,,,,,,,
Universität Hohenheim,Fakultät Naturwissenschaften at the Uni Hohenheim,Food Science and Biotechnology (B.Sc.),"presence learning programme, full-time",6semesters,180,"36 credits in mandatory modules, 30 credits in compulsory elective modules",,,,349,119,74,95.9%,27:73[%m:%f],https://ranking.zeit.de/che/en/studiengang/36656,1.0%,25.0%,,Biotechnology,18 ECTS max. permissible for practice-oriented courses,"no, but credits for study abroad eligible",no,,0/2points,2/3points,3/9points,0/4points,2/3points,1/2points,0/2points,3/11points,"limited number of places, 125 places",,7.3semesters,,,,,,,,,,,,,,,,,,,,,,
Universität Hohenheim,Fakultät Naturwissenschaften at the Uni Hohenheim,Food Science und Engineering (M.Sc.),"presence learning programme, full-time",4semesters,120,no data,,,,112,27,33,63.6%,25:75[%m:%f],https://ranking.zeit.de/che/en/studiengang/36654,18.0%,100.0%,,Biotechnology,,"no, but credits for study abroad eligible",no,,2/2points,3/3points,6/9points,,,,,Not enough data available,"limited number of places, 48 places",,5.4semesters,,,,,,,,,,,,,,,,,,,,,,
Universität Hohenheim,Fakultät Naturwissenschaften at the Uni Hohenheim,Food Biotechnology (M.Sc.),"presence learning programme, full-time",4semesters,120,no data,,,,57,13,17,48.5%,42:58[%m:%f],https://ranking.zeit.de/che/en/studiengang/36655,14.0%,100.0%,,Biotechnology,,"no, but credits for study abroad eligible",no,,2/2points,3/3points,6/9points,,,,,Not enough data available,"limited number of places, 24 places",,5.4semesters,,,,,,,,,,,,,,,,,,,,,,
Universität Hohenheim,Fakultät Naturwissenschaften at the Uni Hohenheim,Food Chemistry (M.Sc.),"presence learning programme, full-time",4semesters,120,no data,,,,45,21,10,not calculated because <10 graduates in one of the years surveyed,16:84[%m:%f],https://ranking.zeit.de/che/en/studiengang/37327,2.0%,25.0%,,Chemical Engineering,10 ECTS max. permissible for practice-oriented courses,"no, but credits for study abroad eligible",no,,0/2points,2/3points,3/9points,0/4points,2/3points,1/2points,0/2points,3/11points,"limited number of places, 25 places",,5.0semesters,,,,,,,,,,,,,,,,,,,,,,
Universität Hohenheim,Fakultät Wirtschafts- und Sozialwissenschaften at the Uni Hohenheim,Economic Sciences (B.Sc.),,6semesters,180,,,,,"2,308",568,483,76.8%,53:47[%m:%f],https://ranking.zeit.de/che/en/studiengang/18394,1.0%,27.0%,,,6 ECTS max. countable for optional internships;,not mandatory; credits countable,"yes,  joint programme degree is optional",,,,,,,,,,"limited number of places, 819 places",,,,,,,,,,,,,,,,,,,,,,,,
Universität Hohenheim,Fakultät Wirtschafts- und Sozialwissenschaften at the Uni Hohenheim,Economics (M.Sc.),,4semesters,120,,,,,116,44,36,54.9%,55:45[%m:%f],https://ranking.zeit.de/che/en/studiengang/25754,29.0%,100.0%,,,,not mandatory; credits countable,"yes,  joint programme degree is optional",,,,,,,,,,"limited number of places, 50 places",,,,,,,,,,,,,,,,,,,,,,,,
Universität Hohenheim,Fakultät Wirtschafts- und Sozialwissenschaften at the Uni Hohenheim,International Business and Economics (M.Sc.),,4semesters,120,,,,,198,88,45,68.9%,33:67[%m:%f],https://ranking.zeit.de/che/en/studiengang/32824,49.0%,100.0%,,,,not mandatory; credits countable,"yes,  joint programme degree is optional",,,,,,,,,,"limited number of places, 50 places",,,,,,,,,,,,,,,,,,,,,,,,
Universität Hohenheim,Fakultät Wirtschafts- und Sozialwissenschaften at the Uni Hohenheim,Management (M.Sc.),,4semesters,120,,,,,796,295,257,65.1%,45:55[%m:%f],https://ranking.zeit.de/che/en/studiengang/33062,2.0%,50.0%,,,,not mandatory; credits countable,"yes,  joint programme degree is optional",,,,,,,,,,"limited number of places, 250 places",,,,,,,,,,,,,,,,,,,,,,,,
Universität Hohenheim,Fakultät Wirtschafts- und Sozialwissenschaften at the Uni Hohenheim,"Master in Finance (M.Sc., extra-occupational)",,4semesters,90,,,,,33,16,no data,no data,,https://ranking.zeit.de/che/en/studiengang/41804,no data,40.0%,,,,not mandatory; credits countable,no,,,,,,,,,,"limited number of places, 20 places",,,,,,,,,,,,,,,,,,,,,,,,
Karlsruher Institut für Technologie,Fakultät für Architektur at the Karlsruher Inst. f. Technologie KIT,Architecture (B.Sc.),"presence learning programme, full-time",6semesters,180,"162 credits in mandatory modules, 18 credits in compulsory elective modules",,,no mandatory excursions,491,146,112,95.1%,45:55[%m:%f],https://ranking.zeit.de/che/en/studiengang/35039,10.0%,10.0%,,,,"no, but credits for study abroad eligible",no,0/4points,2/2points,1/3points,4/10points,,,,,,"limited number of places, 156 places",,,1/1points,,,,,,,,,,,,,,,,,,,,,
Karlsruher Institut für Technologie,Fakultät für Architektur at the Karlsruher Inst. f. Technologie KIT,Architecture (M.Sc.),"presence learning programme, full-time",4semesters,120,no data,,,no mandatory excursions,325,105,108,54.9%,34:66[%m:%f],https://ranking.zeit.de/che/en/studiengang/35040,20.0%,40.0%,,,,"no, but credits for study abroad eligible","yes, ""joint degree"" mandatory",4/4points,2/2points,2/3points,9/10points,,,,,,"limited number of places, 94 places",,,1/1points,,,,,,,,,,,,,,,,,,,,,
Karlsruher Institut für Technologie,Fakultät für Chemie und Biowissenschaften at the Karlsruher Inst. f. Technologie KIT,Biology (B),,6semesters,180,,interdisciplinary study course,47 ECTS from compulsory subjects; 34 ECTS from elective subjects,Scope of excursions: 2 compulsory ECTS,299,104,67,94.0%,39:61[%m:%f],https://ranking.zeit.de/che/en/studiengang/21018,,,,,,,,,,,,,,,,,,,,,,,,,,,,,,,,,,,,,,,,,
Karlsruher Institut für Technologie,Fakultät für Chemie und Biowissenschaften at the Karlsruher Inst. f. Technologie KIT,Biology (M),,4semesters,120,,no data,no data,Scope of excursions: 9 compulsory elective ECTS,136,33,47,,36:64[%m:%f],https://ranking.zeit.de/che/en/studiengang/37492,4.0%,50.0%,,,,,,,,,,,,,,,,,,,,,,,,,,,,,,,,,,,,,,,
Karlsruher Institut für Technologie,Fakultät für Chemieingenieurwesen und Verfahrenstechnik at the Karlsruher Inst. f. Technologie KIT,Chemical Engineering (B.Sc.),"presence learning programme, full-time, interdisciplinary",6semesters,180,"129 credits in mandatory modules, 51 credits in compulsory elective modules",,,,749,168,148,74.6%,73:27[%m:%f],https://ranking.zeit.de/che/en/studiengang/35950,14.0%,0.0%,,Chemical Engineering,17 ECTS max. permissible for practice-oriented courses,not scheduled,no,,2/2points,0/3points,2/9points,0/4points,2/3points,0/2points,0/2points,2/11points,number of places not limited,,7.6semesters,,,,,,,,,,,,,,,,,,,,,,
Karlsruher Institut für Technologie,Fakultät für Chemieingenieurwesen und Verfahrenstechnik at the Karlsruher Inst. f. Technologie KIT,Biological Engineering (B.Sc.),"presence learning programme, full-time, interdisciplinary",6semesters,180,"150 credits in mandatory modules, 30 credits in compulsory elective modules",,,,260,67,52,73.8%,55:45[%m:%f],https://ranking.zeit.de/che/en/studiengang/35948,12.0%,0.0%,,Biotechnology,20 ECTS max. permissible for practice-oriented courses,not scheduled,no,,2/2points,0/3points,2/9points,0/4points,2/3points,0/2points,0/2points,2/11points,"limited number of places, 80 places",,7.3semesters,,,,,,,,,,,,,,,,,,,,,,
Karlsruher Institut für Technologie,Fakultät für Chemieingenieurwesen und Verfahrenstechnik at the Karlsruher Inst. f. Technologie KIT,Chemical Engineering (M.Sc.),"presence learning programme, full-time",4semesters,120,no data,,,,463,167,135,41.9%,69:31[%m:%f],https://ranking.zeit.de/che/en/studiengang/35951,11.0%,23.0%,,Chemical Engineering,12 weeks practice/internship outside the university obligatory; 5 ECTS max. permissible for practice-oriented courses,not scheduled,no,,2/2points,1/3points,3/9points,2/4points,1/3points,0/2points,0/2points,3/11points,number of places not limited,,5.6semesters,,,,,,,,,,,,,,,,,,,,,,
Karlsruher Institut für Technologie,Fakultät für Chemieingenieurwesen und Verfahrenstechnik at the Karlsruher Inst. f. Technologie KIT,Biological Engineering (M.Sc.),"presence learning programme, full-time",4semesters,120,no data,,,,117,39,32,52.4%,57:43[%m:%f],https://ranking.zeit.de/che/en/studiengang/35949,3.0%,23.0%,,Biotechnology,12 weeks practice/internship outside the university obligatory; 5 ECTS max. permissible for practice-oriented courses,not scheduled,no,,0/2points,1/3points,1/9points,2/4points,1/3points,0/2points,0/2points,3/11points,number of places not limited,,5.3semesters,,,,,,,,,,,,,,,,,,,,,,
Karlsruher Institut für Technologie,KIT-Fakultät für Wirtschaftswissenschaften at the Karlsruher Inst. f. Technologie KIT,Business Informatics (B.Sc.),,6semesters,180,,,,,163,130,no graduates yet,no graduates yet,,https://ranking.zeit.de/che/en/studiengang/42028,15.0%,17.5%,,,8 ECTS max. countable for practice-oriented courses,not mandatory; credits countable,no,1/5points,2/3points,1/3points,4/13points,,,,,not ranked,"limited number of places, 167 places",,,,,,0/2Points,,,,,,,,,,,,,,,,,,
Karlsruher Institut für Technologie,KIT-Fakultät für Wirtschaftswissenschaften at the Karlsruher Inst. f. Technologie KIT,Business Informatics (M.Sc.),,4semesters,120,,,,,121,56,no graduates yet,no graduates yet,,https://ranking.zeit.de/che/en/studiengang/42027,15.0%,23.0%,,,not mandatory,not mandatory; credits countable,no,1/5points,2/3points,1/3points,4/13points,,,,,not ranked,"limited number of places, 44 places",,,,,,0/2Points,,,,,,,,,,,,,,,,,,
Karlsruher Institut für Technologie,Fakultät für Chemieingenieurwesen und Verfahrenstechnik at the Karlsruher Inst. f. Technologie KIT,Chemical Engineering (B.Sc.),"presence learning programme, full-time, interdisciplinary",6semesters,180,"129 credits in mandatory modules, 51 credits in compulsory elective modules",,,,749,168,148,74.6%,73:27[%m:%f],https://ranking.zeit.de/che/en/studiengang/35950,14.0%,0.0%,,Chemical Engineering,17 ECTS max. permissible for practice-oriented courses,not scheduled,no,,2/2points,0/3points,2/9points,0/4points,2/3points,0/2points,0/2points,2/11points,number of places not limited,,7.6semesters,,,,,,,,,,,,,,,,,,,,,,
Karlsruher Institut für Technologie,Fakultät für Chemieingenieurwesen und Verfahrenstechnik at the Karlsruher Inst. f. Technologie KIT,Biological Engineering (B.Sc.),"presence learning programme, full-time, interdisciplinary",6semesters,180,"150 credits in mandatory modules, 30 credits in compulsory elective modules",,,,260,67,52,73.8%,55:45[%m:%f],https://ranking.zeit.de/che/en/studiengang/35948,12.0%,0.0%,,Biotechnology,20 ECTS max. permissible for practice-oriented courses,not scheduled,no,,2/2points,0/3points,2/9points,0/4points,2/3points,0/2points,0/2points,2/11points,"limited number of places, 80 places",,7.3semesters,,,,,,,,,,,,,,,,,,,,,,
Karlsruher Institut für Technologie,Fakultät für Chemieingenieurwesen und Verfahrenstechnik at the Karlsruher Inst. f. Technologie KIT,Chemical Engineering (M.Sc.),"presence learning programme, full-time",4semesters,120,no data,,,,463,167,135,41.9%,69:31[%m:%f],https://ranking.zeit.de/che/en/studiengang/35951,11.0%,23.0%,,Chemical Engineering,12 weeks practice/internship outside the university obligatory; 5 ECTS max. permissible for practice-oriented courses,not scheduled,no,,2/2points,1/3points,3/9points,2/4points,1/3points,0/2points,0/2points,3/11points,number of places not limited,,5.6semesters,,,,,,,,,,,,,,,,,,,,,,
Karlsruher Institut für Technologie,Fakultät für Chemieingenieurwesen und Verfahrenstechnik at the Karlsruher Inst. f. Technologie KIT,Biological Engineering (M.Sc.),"presence learning programme, full-time",4semesters,120,no data,,,,117,39,32,52.4%,57:43[%m:%f],https://ranking.zeit.de/che/en/studiengang/35949,3.0%,23.0%,,Biotechnology,12 weeks practice/internship outside the university obligatory; 5 ECTS max. permissible for practice-oriented courses,not scheduled,no,,0/2points,1/3points,1/9points,2/4points,1/3points,0/2points,0/2points,3/11points,number of places not limited,,5.3semesters,,,,,,,,,,,,,,,,,,,,,,
Karlsruher Institut für Technologie,Fakultät für Chemie und Biowissenschaften at the Karlsruher Inst. f. Technologie KIT,Chemistry (B.Sc.),,6semesters,180,,,,,357,89,61,,69:31[%m:%f],https://ranking.zeit.de/che/en/studiengang/36393,,,no admission restriction,,,,,,,,,,,,,,,,,,,,,,,,,,,,,,,,,,,,,,
Karlsruher Institut für Technologie,Fakultät für Chemie und Biowissenschaften at the Karlsruher Inst. f. Technologie KIT,Chemistry (M.Sc.),,4semesters,120,,,,,149,64,,,69:31[%m:%f],https://ranking.zeit.de/che/en/studiengang/21017,,,no admission restriction,,,,,,,,,,,,,,,,,,,,,,,,,,,,,,,,,,,,,,
Karlsruher Institut für Technologie,"Fakultät für Bauingenieur-, Geo- und Umweltwissenschaften at the Karlsruher Inst. f. Technologie KIT",Civil Engineering (B.Sc.),"presence learning programme, full-time",6semesters,180,,,,no mandatory excursions,869,242,141,60.6%,66:34[%m:%f],https://ranking.zeit.de/che/en/studiengang/35133,12.0%,0.0%,,Civil Engineering,4 ECTS max. permissible for practice-oriented courses,"no, but credits for study abroad eligible",no,1/4points,2/2points,0/3points,3/9points,0/4points,0/3points,2/2points,0/2points,2/12points,number of places not limited,0/1points,8.3semesters,,,,,,,,,,,,,,,,,,,,,,
Karlsruher Institut für Technologie,"Fakultät für Bauingenieur-, Geo- und Umweltwissenschaften at the Karlsruher Inst. f. Technologie KIT",Civil Engineering (M.Sc.),"presence learning programme, full-time",4semesters,120,,,,no mandatory excursions,253,86,107,46.9%,64:36[%m:%f],https://ranking.zeit.de/che/en/studiengang/35134,18.0%,20.0%,,Civil Engineering,24 ECTS max. permissible for practice-oriented courses,"yes, in combination with a ""joint programme""","yes, ""joint degree"" optional",3/4points,2/2points,1/3points,6/9points,0/4points,2/3points,2/2points,0/2points,4/12points,number of places not limited,0/1points,5.0semesters,,,,,,,,,,,,,,,,,,,,,,
Karlsruher Institut für Technologie,"Fakultät für Bauingenieur-, Geo- und Umweltwissenschaften at the Karlsruher Inst. f. Technologie KIT",Functional and Structural Engineering – Engineering Structures (M.Sc.),"presence learning programme, full-time",4semesters,120,,,,no mandatory excursions,127,27,45,60.7%,65:35[%m:%f],https://ranking.zeit.de/che/en/studiengang/37511,12.0%,0.0%,,Civil Engineering,12 ECTS max. permissible for practice-oriented courses,"no, but credits for study abroad eligible",no,1/4points,2/2points,0/3points,3/9points,0/4points,2/3points,2/2points,0/2points,4/12points,number of places not limited,0/1points,5.3semesters,,,,,,,,,,,,,,,,,,,,,,
Karlsruher Institut für Technologie,"Fakultät für Bauingenieur-, Geo- und Umweltwissenschaften at the Karlsruher Inst. f. Technologie KIT",Mobility and Infrastructure (M.Sc.),"presence learning programme, full-time",4semesters,120,,,,no mandatory excursions,93,31,16,71.9%,61:39[%m:%f],https://ranking.zeit.de/che/en/studiengang/37512,38.0%,0.0%,,Civil Engineering,6 ECTS max. permissible for practice-oriented courses,"no, but credits for study abroad eligible",no,1/4points,2/2points,0/3points,3/9points,0/4points,1/3points,2/2points,0/2points,3/12points,number of places not limited,0/1points,5.0semesters,,,,,,,,,,,,,,,,,,,,,,
Karlsruher Institut für Technologie,"Fakultät für Bauingenieur-, Geo- und Umweltwissenschaften at the Karlsruher Inst. f. Technologie KIT",Water Science and Engineering (M.Sc.),"presence learning programme, full-time",4semesters,120,,,,no mandatory excursions,91,46,<10,"not calculated, <10 graduates/year",58:42[%m:%f],https://ranking.zeit.de/che/en/studiengang/37880,60.0%,100.0%,,Environmental Civil Engineering,30 ECTS max. permissible for practice-oriented courses,"no, but credits for study abroad eligible",no,1/4points,2/2points,3/3points,6/9points,0/4points,3/3points,2/2points,0/2points,5/12points,number of places not limited,0/1points,< 10 graduates,,,,,,,,,,,,,,,,,,,,,,
Karlsruher Institut für Technologie,Fakultät für Informatik at the Karlsruher Inst. f. Technologie KIT,Computer Science (B.Sc.),,6semesters,180,,no interdisciplinary study course,,,"1,932",658,221,57.5%,87:13[%m:%f],https://ranking.zeit.de/che/en/studiengang/21008,14.0%,25.0%,no admission restriction,"Applied Computer Science, Engineering Information Technology / Computer Engineering, Software-Engineering, Computer Engineering, IT-Security, Computer Visualistics",15 ECTS for practical courses,"no, but credits can be counted",no,1/4points,2/2points,2/3points,5/9points,0/4points,2/3points,0/2points,0/2points,2/11points,,,,,,,,,,,,,,,,,,,,,,,,,
Karlsruher Institut für Technologie,Fakultät für Informatik at the Karlsruher Inst. f. Technologie KIT,Computer Science (M.Sc.),,4semesters,120,,no interdisciplinary study course,,,855,242,184,43.1%,87:13[%m:%f],https://ranking.zeit.de/che/en/studiengang/21009,18.0%,66.0%,387:127,"Applied Computer Science, Engineering Information Technology / Computer Engineering, Software-Engineering, Computer Engineering, IT-Security, Computer Visualistics",12 ECTS for practical courses,"no, but credits can be counted","yes, ""Joint degree"" optional",3/4points,2/2points,3/3points,8/9points,0/4points,2/3points,0/2points,0/2points,2/11points,,,,,,,,,,,,,,,,,,,,,,,,,
Karlsruher Institut für Technologie,Fakultät für Elektrotechnik und Informationstechnik at the Karlsruher Inst. f. Technologie KIT,Electrical Engineering and Information Technology (B.Sc.),"presence learning programme, full-time",6semesters,180,"145 credits in mandatory modules, 35 credits in compulsory elective modules",,,,"1,070",251,174,72.1%,87:13[%m:%f],https://ranking.zeit.de/che/en/studiengang/35556,27.0%,,,Electrical Engineering and Information Engineering,12 weeks practice/internship outside the university obligatory; 14 ECTS max. permissible for practice-oriented courses,"yes, in combination with a ""joint programme""","yes, ""joint degree"" optional",3/4points,2/2points,0/3points,5/9points,2/4points,2/3points,1/2points,0/2points,5/11points,number of places not limited,,7.8semesters,,,,,,,,,,,,,,,,,,,,,,
Karlsruher Institut für Technologie,Fakultät für Elektrotechnik und Informationstechnik at the Karlsruher Inst. f. Technologie KIT,Electrical Engineering and Information Technology (M.Sc.),"presence learning programme, full-time",4semesters,120,no data,,,,733,224,219,45.0%,83:17[%m:%f],https://ranking.zeit.de/che/en/studiengang/35557,31.0%,100.0%,,Electrical Engineering and Information Engineering,12 ECTS max. permissible for practice-oriented courses,"yes, in combination with a ""joint programme""","yes, ""joint degree"" optional",3/4points,2/2points,3/3points,8/9points,0/4points,2/3points,1/2points,0/2points,3/11points,"limited number of places, 230 places",,5.6semesters,,,,,,,,,,,,,,,,,,,,,,
Karlsruher Institut für Technologie,Fakultät für Elektrotechnik und Informationstechnik at the Karlsruher Inst. f. Technologie KIT,Optics and Photonics (M.Sc.),"presence learning programme, full-time",4semesters,120,no data,,,,161,34,51,47.1%,71:29[%m:%f],https://ranking.zeit.de/che/en/studiengang/35558,92.0%,100.0%,,"Engineering, interdisciplinary",8 weeks practice/internship outside the university obligatory,"yes, in combination with a ""joint programme""","yes, ""joint degree"" optional",3/4points,2/2points,3/3points,8/9points,2/4points,0/3points,1/2points,0/2points,3/11points,"limited number of places, 40 places",,5.5semesters,,,,,,,,,,,,,,,,,,,,,,
Karlsruher Institut für Technologie,"Fakultät für Bauingenieur-, Geo- und Umweltwissenschaften at the Karlsruher Inst. f. Technologie KIT",Civil Engineering (B.Sc.),"presence learning programme, full-time",6semesters,180,,,,no mandatory excursions,869,242,141,60.6%,66:34[%m:%f],https://ranking.zeit.de/che/en/studiengang/35133,12.0%,0.0%,,Civil Engineering,4 ECTS max. permissible for practice-oriented courses,"no, but credits for study abroad eligible",no,1/4points,2/2points,0/3points,3/9points,0/4points,0/3points,2/2points,0/2points,2/12points,number of places not limited,0/1points,8.3semesters,,,,,,,,,,,,,,,,,,,,,,
Karlsruher Institut für Technologie,"Fakultät für Bauingenieur-, Geo- und Umweltwissenschaften at the Karlsruher Inst. f. Technologie KIT",Civil Engineering (M.Sc.),"presence learning programme, full-time",4semesters,120,,,,no mandatory excursions,253,86,107,46.9%,64:36[%m:%f],https://ranking.zeit.de/che/en/studiengang/35134,18.0%,20.0%,,Civil Engineering,24 ECTS max. permissible for practice-oriented courses,"yes, in combination with a ""joint programme""","yes, ""joint degree"" optional",3/4points,2/2points,1/3points,6/9points,0/4points,2/3points,2/2points,0/2points,4/12points,number of places not limited,0/1points,5.0semesters,,,,,,,,,,,,,,,,,,,,,,
Karlsruher Institut für Technologie,"Fakultät für Bauingenieur-, Geo- und Umweltwissenschaften at the Karlsruher Inst. f. Technologie KIT",Functional and Structural Engineering – Engineering Structures (M.Sc.),"presence learning programme, full-time",4semesters,120,,,,no mandatory excursions,127,27,45,60.7%,65:35[%m:%f],https://ranking.zeit.de/che/en/studiengang/37511,12.0%,0.0%,,Civil Engineering,12 ECTS max. permissible for practice-oriented courses,"no, but credits for study abroad eligible",no,1/4points,2/2points,0/3points,3/9points,0/4points,2/3points,2/2points,0/2points,4/12points,number of places not limited,0/1points,5.3semesters,,,,,,,,,,,,,,,,,,,,,,
Karlsruher Institut für Technologie,"Fakultät für Bauingenieur-, Geo- und Umweltwissenschaften at the Karlsruher Inst. f. Technologie KIT",Mobility and Infrastructure (M.Sc.),"presence learning programme, full-time",4semesters,120,,,,no mandatory excursions,93,31,16,71.9%,61:39[%m:%f],https://ranking.zeit.de/che/en/studiengang/37512,38.0%,0.0%,,Civil Engineering,6 ECTS max. permissible for practice-oriented courses,"no, but credits for study abroad eligible",no,1/4points,2/2points,0/3points,3/9points,0/4points,1/3points,2/2points,0/2points,3/12points,number of places not limited,0/1points,5.0semesters,,,,,,,,,,,,,,,,,,,,,,
Karlsruher Institut für Technologie,"Fakultät für Bauingenieur-, Geo- und Umweltwissenschaften at the Karlsruher Inst. f. Technologie KIT",Water Science and Engineering (M.Sc.),"presence learning programme, full-time",4semesters,120,,,,no mandatory excursions,91,46,<10,"not calculated, <10 graduates/year",58:42[%m:%f],https://ranking.zeit.de/che/en/studiengang/37880,60.0%,100.0%,,Environmental Civil Engineering,30 ECTS max. permissible for practice-oriented courses,"no, but credits for study abroad eligible",no,1/4points,2/2points,3/3points,6/9points,0/4points,3/3points,2/2points,0/2points,5/12points,number of places not limited,0/1points,< 10 graduates,,,,,,,,,,,,,,,,,,,,,,
Karlsruher Institut für Technologie,"Fakultät für Bauingenieur-, Geo- und Umweltwissenschaften at the Karlsruher Inst. f. Technologie KIT",Geoecology (B.A.),,6semesters,180,,no interdisciplinary study course,,Scope of excursions: 13 compulsory ECTS,133,35,20,82.1%,40:60[%m:%f],https://ranking.zeit.de/che/en/studiengang/40438,3.0%,,174:50,,6 weeks mandatory practical period/internship outside the university; 11 ECTS for practical courses,"no, but credits can be counted",no,0/4points,0/2points,0/3points,0/9points,0/4points,2/3points,0/2points,0/2points,3/12points,,1/1points,,,,,,,,,,,,,,,,,,,,,,,
Karlsruher Institut für Technologie,"Fakultät für Bauingenieur-, Geo- und Umweltwissenschaften at the Karlsruher Inst. f. Technologie KIT",Geoecology (M.Sc.),,4semesters,120,,no interdisciplinary study course,,Scope of excursions: 18 compulsory ECTS and 17 compulsory elective ECTS,66,24,14,35.7%,36:64[%m:%f],https://ranking.zeit.de/che/en/studiengang/40439,3.0%,,70:21,,27 ECTS for practical courses,"no, but credits can be counted",no,0/4points,0/2points,0/3points,0/9points,0/4points,2/3points,0/2points,0/2points,3/12points,,1/1points,,,,,,,,,,,,,,,,,,,,,,,
Karlsruher Institut für Technologie,"Fakultät für Bauingenieur-, Geo- und Umweltwissenschaften at the Karlsruher Inst. f. Technologie KIT",Applied Geosciences (B.Sc.),,6semesters,180,,no interdisciplinary study course,,Scope of excursions: 15 compulsory ECTS,137,50,38,83.1%,65:35[%m:%f],https://ranking.zeit.de/che/en/studiengang/21007,3.0%,0.0%,no admission restriction,,6 weeks mandatory practical period/internship outside the university; 8 ECTS for optional practical projects/internships; 30 ECTS for practical courses,"no, but credits can be counted",no,1/4points,0/2points,0/3points,1/9points,0/4points,3/3points,0/2points,0/2points,4/12points,,1/1points,,,,,,,,,,,,,,,,,,,,,,,
Karlsruher Institut für Technologie,"Fakultät für Bauingenieur-, Geo- und Umweltwissenschaften at the Karlsruher Inst. f. Technologie KIT",Geodesy and Geoinformatics (B.Sc.),,6semesters,180,,,,,74,22,10,100.0%,77:23[%m:%f],https://ranking.zeit.de/che/en/studiengang/40436,4.0%,0.0%,no admission restriction,,9 ECTS for practical courses,"yes, for the joint degree","yes, ""Joint degree"" mandatory",4/4points,0/2points,0/3points,4/9points,0/4points,1/3points,0/2points,0/2points,2/12points,,1/1points,,,,,,,,,,,,,,,,,,,,,,,
Karlsruher Institut für Technologie,"Fakultät für Bauingenieur-, Geo- und Umweltwissenschaften at the Karlsruher Inst. f. Technologie KIT",Applied Geosciences (M.Sc.),,4semesters,120,,no interdisciplinary study course,,Scope of excursions: 11 compulsory ECTS,113,35,24,34.7%,67:33[%m:%f],https://ranking.zeit.de/che/en/studiengang/22106,4.0%,21.0%,55:33,,34 ECTS for practical courses,"no, but credits can be counted",no,1/4points,0/2points,1/3points,2/9points,0/4points,3/3points,0/2points,0/2points,4/12points,,1/1points,,,,,,,,,,,,,,,,,,,,,,,
Karlsruher Institut für Technologie,"Fakultät für Bauingenieur-, Geo- und Umweltwissenschaften at the Karlsruher Inst. f. Technologie KIT",Geodesy and Geoinformatics (M.Sc.),,4semesters,120,,,,Scope of excursions: 2 compulsory ECTS,33,,12,78.3%,70:30[%m:%f],https://ranking.zeit.de/che/en/studiengang/40437,36.0%,100.0%,no admission restriction,,2 ECTS for practical courses,"yes, for the joint degree","yes, ""Joint degree"" mandatory",4/4points,2/2points,3/3points,9/9points,0/4points,0/3points,0/2points,0/2points,0/12points,,0/1points,,,,,,,,,,,,,,,,,,,,,,,
Karlsruher Institut für Technologie,Fakultät für Geistes- und Sozialwissenschaften at the Karlsruher Inst. f. Technologie KIT,German Language and Literature (B.A.),"presence learning programme, full-time",6semesters,180,,,,,146,44,25,60.0%,,https://ranking.zeit.de/che/en/studiengang/37421,0.0%,,,,,not scheduled,no,,,,Not ranked,,,,,,number of places not limited,,,,,,,,,,,,,,,,,,,,,,,,
Karlsruher Institut für Technologie,Fakultät für Geistes- und Sozialwissenschaften at the Karlsruher Inst. f. Technologie KIT,German Language and Literature (M.A.),"presence learning programme, full-time",4semesters,120,,,,,72,17,15,20.7%,,https://ranking.zeit.de/che/en/studiengang/37422,28.0%,,,,,"yes, in combination with a ""joint programme""","yes, ""joint degree"" optional",3/4points,2/2points,0/3points,5/9points,,,,,,number of places not limited,,,,,,,,,,,,,,,,,,,,,,,,
Karlsruher Institut für Technologie,KIT-Fakultät für Wirtschaftswissenschaften at the Karlsruher Inst. f. Technologie KIT,Industrial Engineering (B.Sc.),"Presence learning programme; full-time programme, equally engineering and management oriented",6semesters,180,,,,,"2,016",553,425,76.2%,73:27[%m:%f],https://ranking.zeit.de/che/en/studiengang/18047,14.0%,16.0%,,,12 weeks practice/internship outside university mandatory; 10 ECTS max. countable for practice-oriented courses,not mandatory; credits countable,no,1/5points,2/3points,1/3points,4/13points,2/4points,2/3points,2/3points,0/2points,6/12points,"limited number of places, 505 places",,,,,,0/2Points,,,,,,,,,,,,,,,,,,
Karlsruher Institut für Technologie,KIT-Fakultät für Wirtschaftswissenschaften at the Karlsruher Inst. f. Technologie KIT,Industrial Engineering (M.Sc.),"Presence learning programme; full-time programme, equally engineering and management oriented",4semesters,120,,,,,"1,101",364,420,86.1%,81:19[%m:%f],https://ranking.zeit.de/che/en/studiengang/18048,14.0%,21.0%,,,not mandatory,not mandatory; credits countable,"yes,  joint programme degree is optional",4/5points,2/3points,1/3points,7/13points,,,,,not ranked,"limited number of places, 168 places",,,,,,0/2Points,,,,,,,,,,,,,,,,,,
Karlsruher Institut für Technologie,Fakultät für Elektrotechnik und Informationstechnik at the Karlsruher Inst. f. Technologie KIT,Electrical Engineering and Information Technology (B.Sc.),"presence learning programme, full-time",6semesters,180,"145 credits in mandatory modules, 35 credits in compulsory elective modules",,,,"1,070",251,174,72.1%,87:13[%m:%f],https://ranking.zeit.de/che/en/studiengang/35556,27.0%,,,Electrical Engineering and Information Engineering,12 weeks practice/internship outside the university obligatory; 14 ECTS max. permissible for practice-oriented courses,"yes, in combination with a ""joint programme""","yes, ""joint degree"" optional",3/4points,2/2points,0/3points,5/9points,2/4points,2/3points,1/2points,0/2points,5/11points,number of places not limited,,7.8semesters,,,,,,,,,,,,,,,,,,,,,,
Karlsruher Institut für Technologie,Fakultät für Elektrotechnik und Informationstechnik at the Karlsruher Inst. f. Technologie KIT,Electrical Engineering and Information Technology (M.Sc.),"presence learning programme, full-time",4semesters,120,no data,,,,733,224,219,45.0%,83:17[%m:%f],https://ranking.zeit.de/che/en/studiengang/35557,31.0%,100.0%,,Electrical Engineering and Information Engineering,12 ECTS max. permissible for practice-oriented courses,"yes, in combination with a ""joint programme""","yes, ""joint degree"" optional",3/4points,2/2points,3/3points,8/9points,0/4points,2/3points,1/2points,0/2points,3/11points,"limited number of places, 230 places",,5.6semesters,,,,,,,,,,,,,,,,,,,,,,
Karlsruher Institut für Technologie,Fakultät für Elektrotechnik und Informationstechnik at the Karlsruher Inst. f. Technologie KIT,Optics and Photonics (M.Sc.),"presence learning programme, full-time",4semesters,120,no data,,,,161,34,51,47.1%,71:29[%m:%f],https://ranking.zeit.de/che/en/studiengang/35558,92.0%,100.0%,,"Engineering, interdisciplinary",8 weeks practice/internship outside the university obligatory,"yes, in combination with a ""joint programme""","yes, ""joint degree"" optional",3/4points,2/2points,3/3points,8/9points,2/4points,0/3points,1/2points,0/2points,3/11points,"limited number of places, 40 places",,5.5semesters,,,,,,,,,,,,,,,,,,,,,,
Karlsruher Institut für Technologie,Fakultät für Maschinenbau at the Karlsruher Inst. f. Technologie KIT,Mechanical Engineering (B.Sc.),"presence learning programme, full-time, interdisciplinary",6semesters,180,"143 credits in mandatory modules, 17 credits in compulsory elective modules",,,,"1,931",455,440,67.3%,87:13[%m:%f],https://ranking.zeit.de/che/en/studiengang/35679,17.0%,10.0%,,Mechanical Engineering,3 ECTS max. permissible for practice-oriented courses,"yes, in combination with a ""joint programme""","yes, ""joint degree"" optional",,2/2points,1/3points,6/9points,,,,,Not enough data available,"limited number of places, 525 places",,7.9semesters,,,,,,,,,,,,,,,,,,,,,,
Karlsruher Institut für Technologie,Fakultät für Maschinenbau at the Karlsruher Inst. f. Technologie KIT,Materials Science and Technology (B.Sc.),"presence learning programme, full-time, interdisciplinary",6semesters,180,"151 credits in mandatory modules, 14 credits in compulsory elective modules",,,,112,28,19,83.8%,71:29[%m:%f],https://ranking.zeit.de/che/en/studiengang/35686,16.0%,0.0%,,Material Engineering,14 ECTS max. permissible for practice-oriented courses,no data,no,,2/2points,0/3points,3/9points,0/4points,2/3points,0/2points,0/2points,2/11points,number of places not limited,,7.7semesters,,,,,,,,,,,,,,,,,,,,,,
Karlsruher Institut für Technologie,Fakultät für Maschinenbau at the Karlsruher Inst. f. Technologie KIT,Mechanical Engineering (M.Sc.),"presence learning programme, full-time",4semesters,120,no data,,,,"1,909",337,565,53.0%,84:16[%m:%f],https://ranking.zeit.de/che/en/studiengang/35684,47.0%,100.0%,,Mechanical Engineering,18 weeks practice/internship outside the university obligatory; 35 ECTS max. permissible for practice-oriented courses,"yes, in combination with a ""joint programme""","yes, ""joint degree"" optional",,2/2points,3/3points,8/9points,2/4points,3/3points,0/2points,0/2points,5/11points,number of places not limited,,5.5semesters,,,,,,,,,,,,,,,,,,,,,,
Karlsruher Institut für Technologie,Fakultät für Maschinenbau at the Karlsruher Inst. f. Technologie KIT,Materials Science and Technology (M.Sc.),"presence learning programme, full-time",4semesters,120,no data,,,,167,56,33,43.9%,60:40[%m:%f],https://ranking.zeit.de/che/en/studiengang/35687,62.0%,10.0%,,Material Engineering,9 weeks practice/internship outside the university obligatory; 12 ECTS max. permissible for practice-oriented courses,no data,no,,2/2points,1/3points,4/9points,2/4points,2/3points,0/2points,0/2points,4/11points,number of places not limited,,6.1semesters,,,,,,,,,,,,,,,,,,,,,,
Karlsruher Institut für Technologie,Fakultät für Maschinenbau at the Karlsruher Inst. f. Technologie KIT,Production and Operation Management (M.Sc),"presence learning programme, extra-occupational",4semesters,120,no data,,,,30,10,<10,"not calculated, <10 graduates/year",80:20[%m:%f],https://ranking.zeit.de/che/en/studiengang/35685,27.0%,100.0%,,Mechanical Engineering,,no data,"yes, ""joint degree"" optional",,2/2points,3/3points,8/9points,,,,,Not enough data available,number of places not limited,,"not calculated, <10 graduates/year",,,,,,,,,,,,,,,,,,,,,,
Karlsruher Institut für Technologie,Fakultät für Maschinenbau at the Karlsruher Inst. f. Technologie KIT,Management of Product Development (M.Sc.),"presence learning programme, extra-occupational",4semesters,120,no data,,,,11,6,<10,"not calculated, <10 graduates/year",100:0[%m:%f],https://ranking.zeit.de/che/en/studiengang/35683,27.0%,100.0%,,Mechanical Engineering,,no data,"yes, ""joint degree"" optional",,2/2points,3/3points,8/9points,,,,,Not enough data available,number of places not limited,,"not calculated, <10 graduates/year",,,,,,,,,,,,,,,,,,,,,,
Karlsruher Institut für Technologie,Fakultät für Maschinenbau at the Karlsruher Inst. f. Technologie KIT,Energy Engineering and Management (M.Sc.),"presence learning programme, extra-occupational",4semesters,120,no data,,,,31,29,<10,"not calculated, <10 graduates/year",94:6[%m:%f],https://ranking.zeit.de/che/en/studiengang/41027,90.0%,100.0%,,Mechanical Engineering,,no data,"yes, ""joint degree"" optional",,2/2points,3/3points,8/9points,,,,,Not enough data available,number of places not limited,,"not calculated, <10 graduates/year",,,,,,,,,,,,,,,,,,,,,,
Karlsruher Institut für Technologie,Fakultät für Maschinenbau at the Karlsruher Inst. f. Technologie KIT,Mechanical Engineering International (B.Sc.),"presence learning programme, full-time, interdisciplinary",6semesters,180,"143 credits in mandatory modules, 17 credits in compulsory elective modules",,,,17,8,no graduates until WS 2017/18,no graduates until WS 2017/18,76:24[%m:%f],https://ranking.zeit.de/che/en/studiengang/41026,41.0%,100.0%,,Mechanical Engineering,,no data,no,,2/2points,3/3points,6/9points,,,,,Not enough data available,"limited number of places, 50 places",,no graduates until WS 2017/18,,,,,,,,,,,,,,,,,,,,,,
